# skilleye imu stream v1
# device=xiao_esp32c6 imu=mpu6050 addr=0x68
# rate_hz=200 accel_range_g=16 gyro_range_dps=2000 dlpf_hz=94
# units: accel in g, gyro in deg/s, t_us in microseconds since boot (monotonic)
# no shared clock with the camera -- tap the racket once before each take
# so both recordings share a spike to align on
seq,t_us,ax,ay,az,gx,gy,gz
0,1202027952,0.6050,-0.7056,0.5557,53.23,25.73,-30.91
1,1202032629,0.5869,-0.6748,0.5522,53.41,24.76,-31.16
2,1202037627,0.5552,-0.7012,0.6533,53.35,24.45,-31.34
3,1202042629,0.5425,-0.7070,0.6538,52.74,24.21,-31.22
4,1202047627,0.5420,-0.6787,0.6045,52.87,23.48,-30.85
5,1202052629,0.5483,-0.6738,0.6562,50.91,23.17,-30.24
6,1202057629,0.5718,-0.7036,0.7124,48.05,23.35,-29.02
7,1202062629,0.5918,-0.6870,0.6816,45.85,23.41,-27.07
8,1202067627,0.6050,-0.6646,0.6353,41.95,23.17,-24.94
9,1202072629,0.6084,-0.6538,0.6611,39.88,22.74,-22.93
10,1202077639,0.5879,-0.6445,0.6724,39.70,22.07,-20.98
11,1202082627,0.5815,-0.6455,0.6567,38.90,21.83,-19.15
12,1202087627,0.5645,-0.6675,0.6807,38.23,21.71,-17.50
13,1202092629,0.5635,-0.6523,0.6182,40.67,21.28,-16.10
14,1202097628,0.5996,-0.6367,0.6260,42.50,20.61,-15.30
15,1202102627,0.6328,-0.6206,0.6113,44.88,20.37,-14.88
16,1202107631,0.6338,-0.6064,0.5488,45.85,19.51,-14.70
17,1202112627,0.6045,-0.6426,0.6440,46.46,19.02,-14.82
18,1202117628,0.5835,-0.6401,0.6431,47.87,18.35,-14.88
19,1202122759,0.5830,-0.6011,0.6450,50.18,16.77,-14.94
20,1202127630,0.5806,-0.5806,0.6675,49.88,15.67,-14.94
21,1202132628,0.5576,-0.5728,0.7041,48.29,15.24,-14.82
22,1202137704,0.5347,-0.5581,0.7334,44.88,14.27,-14.70
23,1202142629,0.5215,-0.5425,0.7368,42.32,13.41,-14.39
24,1202147627,0.5210,-0.5161,0.7627,38.41,12.44,-14.09
25,1202152631,0.5186,-0.5220,0.7939,33.72,11.52,-14.02
26,1202157628,0.5278,-0.5454,0.7935,28.29,10.67,-13.66
27,1202162627,0.5347,-0.5645,0.8140,23.54,9.76,-13.23
28,1202167627,0.5552,-0.5767,0.8218,19.57,8.78,-12.80
29,1202172627,0.5815,-0.5933,0.8071,16.40,7.93,-12.56
30,1202177627,0.5981,-0.6089,0.8047,13.66,6.89,-12.26
31,1202182627,0.6060,-0.6279,0.7944,11.59,5.79,-12.13
32,1202187627,0.6172,-0.6479,0.7837,10.00,4.70,-11.95
33,1202192629,0.6289,-0.6694,0.7783,9.09,3.84,-11.52
34,1202197631,0.6519,-0.6792,0.7646,8.90,2.74,-10.79
35,1202202629,0.6821,-0.6855,0.7573,9.39,1.83,-9.94
36,1202207627,0.6865,-0.6899,0.7495,10.49,0.43,-8.78
37,1202212629,0.6787,-0.6841,0.7422,11.95,-1.04,-7.74
38,1202217628,0.6694,-0.6714,0.7358,13.29,-2.68,-6.59
39,1202222627,0.6553,-0.6602,0.7305,14.21,-4.33,-5.24
40,1202227627,0.6421,-0.6592,0.7471,14.76,-6.04,-3.72
41,1202232629,0.6382,-0.6372,0.7144,15.30,-7.99,-1.83
42,1202237627,0.6221,-0.6045,0.7573,14.76,-9.63,0.12
43,1202242634,0.5996,-0.5879,0.7290,12.26,-11.16,2.20
44,1202247627,0.5654,-0.5825,0.7305,9.33,-12.93,4.21
45,1202252627,0.5469,-0.5620,0.7500,5.43,-15.00,6.52
46,1202257631,0.5400,-0.5479,0.7441,2.01,-15.98,7.87
47,1202262627,0.5225,-0.5474,0.7378,-2.93,-17.50,9.51
48,1202267629,0.5093,-0.5508,0.7480,-8.05,-18.66,10.73
49,1202272627,0.5039,-0.5601,0.7529,-12.62,-20.12,11.95
50,1202277627,0.4888,-0.6006,0.7651,-16.77,-20.91,13.05
51,1202282631,0.5029,-0.6226,0.7461,-20.18,-21.46,14.27
52,1202287628,0.5264,-0.6118,0.6924,-25.06,-21.59,15.30
53,1202292629,0.5327,-0.6118,0.6909,-29.94,-21.34,16.04
54,1202297627,0.5366,-0.6196,0.6685,-33.29,-20.91,16.52
55,1202302631,0.5400,-0.6294,0.6514,-35.00,-20.37,16.89
56,1202307629,0.5498,-0.6313,0.6216,-35.79,-19.76,16.95
57,1202312629,0.5503,-0.6309,0.6006,-35.98,-18.84,16.95
58,1202317628,0.5493,-0.6353,0.5850,-35.30,-17.99,16.77
59,1202322630,0.5557,-0.6362,0.5688,-33.66,-17.38,16.40
60,1202327632,0.5518,-0.6343,0.5483,-31.22,-16.52,16.04
61,1202332630,0.5410,-0.6284,0.5308,-28.66,-15.61,15.55
62,1202337628,0.5303,-0.6157,0.5186,-25.73,-14.82,15.24
63,1202342629,0.5132,-0.6050,0.5132,-22.56,-13.96,15.00
64,1202347629,0.5063,-0.5947,0.5088,-19.39,-13.23,14.76
65,1202352627,0.4995,-0.5728,0.5054,-16.04,-12.56,14.76
66,1202357629,0.4990,-0.5601,0.5078,-12.68,-11.77,14.70
67,1202362629,0.4976,-0.5518,0.5020,-8.72,-11.10,14.82
68,1202367628,0.4990,-0.5493,0.4941,-4.94,-10.37,15.18
69,1202372629,0.5039,-0.5542,0.4824,-1.34,-9.63,15.55
70,1202377627,0.5044,-0.5698,0.4858,2.13,-9.02,16.04
71,1202382630,0.5107,-0.5918,0.4844,5.30,-8.35,16.71
72,1202387627,0.5166,-0.6138,0.4873,8.41,-7.50,17.32
73,1202392629,0.5215,-0.6313,0.4917,10.85,-6.71,18.05
74,1202397627,0.5337,-0.6553,0.5029,12.93,-5.85,18.78
75,1202402627,0.5483,-0.6768,0.5322,14.27,-5.18,19.51
76,1202407627,0.5537,-0.6851,0.5454,15.37,-4.45,20.43
77,1202412627,0.5610,-0.7007,0.5552,16.22,-3.48,21.22
78,1202418282,0.5688,-0.7217,0.5693,16.34,-2.87,22.20
79,1202422631,0.5703,-0.7197,0.5913,15.85,-2.32,22.80
80,1202427628,0.5645,-0.7241,0.6084,14.76,-1.95,23.54
81,1202432628,0.5601,-0.7275,0.6177,13.48,-1.71,24.15
82,1202437630,0.5527,-0.7275,0.6421,11.65,-1.59,24.57
83,1202442627,0.5439,-0.7197,0.6514,9.39,-1.46,24.94
84,1202447629,0.5435,-0.7173,0.6577,6.83,-1.52,25.18
85,1202452760,0.5298,-0.7100,0.6523,3.84,-1.40,25.30
86,1202457659,0.5381,-0.7163,0.6484,2.38,-1.40,25.49
87,1202462627,0.5352,-0.7251,0.6445,1.10,-1.34,25.73
88,1202467627,0.5332,-0.7339,0.6416,0.37,-1.34,26.04
89,1202472629,0.5317,-0.7412,0.6333,0.12,-1.40,26.10
90,1202477629,0.5259,-0.7476,0.6274,0.06,-1.46,26.10
91,1202482627,0.5112,-0.7568,0.6289,0.12,-1.65,26.04
92,1202487631,0.4868,-0.7598,0.6206,0.49,-1.71,25.79
93,1202492629,0.4673,-0.7749,0.6162,0.73,-2.01,25.55
94,1202497627,0.4673,-0.7729,0.6040,1.83,-2.26,25.30
95,1202503036,0.4556,-0.7681,0.5864,2.38,-2.62,24.70
96,1202507629,0.4492,-0.7632,0.5981,2.56,-2.87,24.51
97,1202512629,0.4424,-0.7612,0.5801,2.07,-3.11,24.21
98,1202517629,0.4321,-0.7363,0.5674,1.77,-3.23,23.96
99,1202522631,0.4482,-0.7305,0.5688,1.77,-3.29,23.84
100,1202527630,0.4370,-0.7271,0.5493,1.83,-3.23,23.78
101,1202532627,0.4541,-0.7388,0.5391,1.95,-3.23,23.84
102,1202537629,0.4624,-0.7471,0.5449,2.26,-3.05,23.96
103,1202542628,0.4722,-0.7427,0.5527,2.62,-2.99,24.27
104,1202547629,0.4561,-0.7520,0.5195,2.56,-2.99,24.39
105,1202552633,0.4395,-0.7568,0.5479,1.95,-2.80,24.33
106,1202557627,0.4399,-0.7534,0.5723,1.40,-2.50,24.02
107,1202562627,0.4399,-0.7646,0.5605,1.65,-2.56,23.66
108,1202567627,0.4023,-0.7715,0.5664,2.50,-2.50,23.17
109,1202572627,0.4536,-0.7695,0.5815,4.27,-2.68,22.62
110,1202577778,0.4380,-0.7749,0.5825,7.07,-2.87,21.71
111,1202582627,0.4312,-0.7661,0.5698,8.72,-2.93,21.28
112,1202587627,0.4448,-0.7710,0.5581,10.67,-2.74,20.61
113,1202592630,0.4590,-0.7578,0.5576,12.62,-2.56,20.24
114,1202597627,0.4482,-0.7456,0.5498,14.21,-2.50,19.63
115,1202602629,0.4189,-0.7461,0.5439,15.24,-2.13,19.45
116,1202607628,0.4375,-0.7476,0.5327,15.91,-1.89,19.02
117,1202612629,0.4331,-0.7354,0.5449,16.52,-1.59,18.72
118,1202617627,0.3911,-0.7476,0.5522,17.26,-1.46,18.54
119,1202622629,0.3403,-0.7241,0.5459,17.56,-1.22,18.35
120,1202627628,0.3716,-0.6914,0.5479,17.32,-1.10,17.99
121,1202632627,0.3906,-0.6890,0.5562,16.95,-1.22,17.74
122,1202637627,0.3726,-0.6992,0.5747,16.22,-1.10,17.50
123,1202642627,0.3613,-0.6953,0.5977,15.37,-0.98,17.56
124,1202647627,0.3701,-0.6851,0.6030,14.82,-1.04,17.56
125,1202652681,0.3774,-0.6865,0.6172,14.39,-1.10,17.56
126,1202657627,0.3794,-0.6758,0.6216,14.02,-1.16,17.56
127,1202663002,0.3833,-0.6782,0.6216,12.93,-1.28,17.50
128,1202667630,0.3799,-0.6851,0.6260,11.59,-1.28,17.56
129,1202672627,0.3813,-0.6968,0.6279,10.30,-1.22,17.62
130,1202677627,0.3867,-0.6992,0.6416,8.84,-0.98,17.56
131,1202682627,0.4028,-0.7012,0.6445,8.05,-0.55,17.62
132,1202687627,0.4150,-0.7026,0.6543,8.48,-0.30,17.50
133,1202692629,0.4346,-0.7104,0.6646,10.37,0.06,17.44
134,1202697628,0.4424,-0.7183,0.6621,12.50,0.24,17.56
135,1202702863,0.4517,-0.7217,0.6680,16.22,0.61,17.62
136,1202707629,0.4463,-0.7246,0.6709,18.60,0.85,17.56
137,1202712629,0.4517,-0.7212,0.6699,21.22,1.40,17.56
138,1202717629,0.4526,-0.7173,0.6587,22.38,1.59,17.44
139,1202722628,0.4492,-0.7114,0.6489,22.80,2.07,17.44
140,1202727629,0.4434,-0.7061,0.6499,22.01,2.38,17.32
141,1202732628,0.4390,-0.6958,0.6440,19.88,2.62,17.07
142,1202737629,0.4365,-0.6841,0.6411,16.40,2.99,16.83
143,1202742629,0.4336,-0.6733,0.6450,12.74,3.29,16.59
144,1202747782,0.4316,-0.6694,0.6450,9.02,3.48,16.40
145,1202752627,0.4292,-0.6626,0.6465,6.22,3.60,16.22
146,1202757629,0.4341,-0.6606,0.6484,2.80,3.84,15.91
147,1202762629,0.4429,-0.6558,0.6553,0.91,3.96,15.85
148,1202767629,0.4526,-0.6602,0.6621,-0.06,4.02,15.73
149,1202772627,0.4639,-0.6626,0.6709,-0.12,4.02,15.55
150,1202777627,0.4722,-0.6602,0.6812,0.55,3.96,15.37
151,1202782629,0.4868,-0.6636,0.6909,2.68,3.96,15.18
152,1202787629,0.5024,-0.6733,0.6943,5.49,3.90,15.06
153,1202792629,0.5059,-0.6812,0.7026,8.48,3.84,14.94
154,1202797629,0.5122,-0.6895,0.7021,11.28,4.15,14.88
155,1202802629,0.5259,-0.6982,0.6924,13.54,4.27,14.70
156,1202807627,0.5396,-0.6978,0.6880,15.30,4.51,14.39
157,1202812629,0.5640,-0.6968,0.6870,16.52,4.70,14.27
158,1202817715,0.5986,-0.6943,0.6729,17.32,5.00,14.02
159,1202822629,0.5957,-0.6895,0.6621,17.26,5.61,13.60
160,1202827770,0.6025,-0.6943,0.6582,16.04,6.04,13.41
161,1202832632,0.6011,-0.7021,0.6401,14.33,6.40,13.23
162,1202837627,0.5947,-0.7065,0.6431,12.62,6.65,12.99
163,1202842627,0.5669,-0.7363,0.6660,10.18,6.65,12.32
164,1202847629,0.5547,-0.7480,0.6865,8.66,6.46,11.59
165,1202852628,0.5430,-0.7554,0.7104,7.99,6.04,10.55
166,1202857629,0.5381,-0.7573,0.7202,8.05,5.67,9.39
167,1202862630,0.5186,-0.7617,0.7324,8.48,4.70,7.74
168,1202867629,0.4990,-0.7739,0.7354,8.72,3.66,6.04
169,1202872628,0.4844,-0.7871,0.7441,8.05,2.50,4.15
170,1202877630,0.4565,-0.8037,0.7563,6.46,1.22,2.26
171,1202882627,0.4409,-0.8208,0.7773,4.70,0.24,0.91
172,1202887627,0.4175,-0.8306,0.8110,2.07,-0.85,-0.67
173,1202892627,0.4214,-0.8340,0.8257,-0.91,-1.83,-2.01
174,1202897627,0.4307,-0.8247,0.8145,-5.00,-3.05,-3.66
175,1202902627,0.4482,-0.8032,0.7808,-8.48,-4.51,-5.06
176,1202907977,0.4775,-0.7891,0.7656,-12.20,-6.10,-6.95
177,1202912629,0.4878,-0.8032,0.7661,-16.46,-7.56,-8.78
178,1202917628,0.4951,-0.8232,0.7588,-20.85,-8.96,-10.61
179,1202922629,0.5117,-0.8330,0.7593,-24.70,-9.82,-12.50
180,1202927627,0.5366,-0.8423,0.7319,-28.54,-10.55,-14.51
181,1202932627,0.5493,-0.8379,0.7051,-31.71,-11.16,-16.46
182,1202937629,0.5586,-0.8315,0.6895,-34.45,-11.65,-18.66
183,1202942907,0.5723,-0.8496,0.6807,-36.83,-11.89,-20.49
184,1202947629,0.5781,-0.8604,0.6782,-38.78,-11.65,-22.07
185,1202952636,0.5923,-0.8438,0.6641,-40.30,-11.40,-23.35
186,1202957629,0.6064,-0.8223,0.6475,-41.28,-10.67,-24.63
187,1202962629,0.6152,-0.8145,0.6333,-41.28,-10.06,-25.79
188,1202967627,0.6128,-0.8018,0.6128,-40.73,-9.33,-27.07
189,1202973217,0.6191,-0.8037,0.5869,-39.39,-8.35,-28.23
190,1202977629,0.6411,-0.8096,0.5679,-37.62,-7.26,-29.09
191,1202982628,0.6636,-0.8062,0.5532,-35.79,-6.10,-29.94
192,1202987627,0.6680,-0.7959,0.5352,-34.15,-4.94,-30.30
193,1202992627,0.6714,-0.7817,0.5244,-32.01,-3.35,-30.79
194,1202997629,0.6860,-0.7666,0.5093,-29.02,-1.28,-31.28
195,1203002628,0.7227,-0.7607,0.5093,-26.10,0.61,-31.40
196,1203007629,0.7563,-0.7554,0.5132,-22.87,2.68,-31.22
197,1203012629,0.7710,-0.7495,0.5151,-19.15,4.94,-30.85
198,1203017628,0.7612,-0.7490,0.5083,-15.00,7.20,-30.30
199,1203022629,0.7456,-0.7598,0.5190,-10.43,9.39,-29.88
200,1203027627,0.7451,-0.7788,0.5132,-5.55,11.34,-29.27
201,1203032627,0.7236,-0.7808,0.5127,-0.55,13.29,-28.60
202,1203037986,0.7041,-0.7842,0.5107,4.33,14.88,-28.35
203,1203042629,0.6963,-0.8022,0.5078,9.27,16.22,-28.11
204,1203047629,0.7031,-0.8242,0.4985,13.72,17.44,-27.68
205,1203052629,0.6934,-0.8345,0.4907,17.80,18.17,-27.38
206,1203057627,0.6743,-0.8540,0.4971,20.91,18.54,-27.13
207,1203062629,0.6465,-0.8643,0.5044,22.87,18.48,-27.26
208,1203067629,0.5903,-0.8599,0.5229,24.57,18.11,-27.26
209,1203072629,0.6392,-0.8916,0.5903,26.28,17.50,-27.50
210,1203077628,0.6289,-0.9331,0.5972,26.40,16.65,-28.23
211,1203082629,0.5977,-0.9722,0.5850,24.33,15.37,-29.33
212,1203087629,0.5957,-1.0020,0.6299,20.24,13.96,-30.79
213,1203092664,0.6050,-1.0444,0.6812,14.76,12.68,-32.80
214,1203097629,0.6211,-1.0850,0.6895,8.29,11.16,-35.12
215,1203102792,0.6274,-1.1289,0.7222,2.01,9.57,-37.93
216,1203107629,0.6265,-1.1802,0.7754,-3.54,7.56,-41.04
217,1203112628,0.6255,-1.2280,0.8013,-7.99,5.49,-44.63
218,1203117629,0.5996,-1.2642,0.8252,-11.46,2.99,-48.54
219,1203122629,0.5864,-1.2969,0.8584,-13.78,0.18,-52.99
220,1203127818,0.5879,-1.3306,0.8755,-14.63,-2.74,-57.56
221,1203132629,0.5889,-1.3594,0.8853,-14.82,-6.10,-62.68
222,1203137627,0.5894,-1.3774,0.9126,-14.70,-9.51,-67.93
223,1203142631,0.5913,-1.3994,0.9282,-14.94,-13.11,-73.48
224,1203147627,0.5913,-1.4146,0.9316,-15.85,-16.59,-79.27
225,1203152627,0.5771,-1.4155,0.9341,-17.80,-20.37,-85.43
226,1203157629,0.5693,-1.4175,0.9414,-20.55,-23.78,-91.77
227,1203162629,0.5747,-1.4087,0.9224,-23.66,-27.20,-98.29
228,1203167628,0.5664,-1.4014,0.9180,-27.07,-30.49,-104.76
229,1203172627,0.5596,-1.3813,0.8960,-30.73,-33.60,-111.34
230,1203177629,0.5659,-1.3560,0.8770,-34.63,-36.46,-117.74
231,1203182629,0.5747,-1.3379,0.8633,-38.23,-38.90,-124.09
232,1203187628,0.5757,-1.3047,0.8457,-41.83,-41.10,-130.24
233,1203192629,0.5654,-1.2598,0.8203,-45.00,-42.93,-136.04
234,1203197633,0.5684,-1.2202,0.7998,-47.13,-44.33,-141.65
235,1203202627,0.5830,-1.1860,0.7715,-48.05,-45.30,-146.95
236,1203207627,0.5884,-1.1479,0.7515,-47.68,-46.28,-151.52
237,1203212627,0.5635,-1.0967,0.7285,-45.98,-46.89,-155.98
238,1203217631,0.5400,-1.0522,0.7114,-43.35,-47.26,-160.06
239,1203222629,0.5405,-1.0063,0.6953,-40.00,-47.50,-163.96
240,1203227628,0.5518,-0.9619,0.6748,-36.46,-47.38,-167.44
241,1203232629,0.5522,-0.9136,0.6514,-33.17,-47.07,-170.73
242,1203237627,0.5459,-0.8628,0.6396,-30.79,-46.59,-173.54
243,1203242629,0.5405,-0.7974,0.6196,-29.70,-46.10,-176.04
244,1203247627,0.5444,-0.7393,0.6099,-29.02,-45.30,-178.23
245,1203252627,0.5312,-0.6978,0.5752,-28.78,-44.57,-180.00
246,1203257629,0.4487,-0.6445,0.5693,-28.48,-43.90,-181.28
247,1203262629,0.4224,-0.5757,0.5508,-29.27,-43.11,-181.95
248,1203267628,0.4180,-0.4922,0.5283,-31.22,-42.56,-182.20
249,1203272630,0.4287,-0.4331,0.5278,-33.41,-41.71,-182.01
250,1203277629,0.4258,-0.3730,0.5181,-35.24,-40.73,-181.16
251,1203283014,0.4053,-0.2988,0.5034,-36.10,-39.57,-179.76
252,1203287630,0.3838,-0.2319,0.5107,-35.91,-38.78,-177.80
253,1203292629,0.3750,-0.1489,0.5239,-34.82,-37.74,-175.43
254,1203297629,0.3892,-0.0854,0.5254,-32.62,-36.71,-172.38
255,1203302629,0.3779,-0.0176,0.5283,-29.63,-35.91,-168.54
256,1203307627,0.3467,0.0688,0.5400,-26.52,-35.24,-164.21
257,1203312629,0.3237,0.1494,0.5679,-23.96,-34.76,-159.33
258,1203317628,0.3062,0.2334,0.5684,-21.71,-34.27,-153.90
259,1203322629,0.3027,0.3027,0.5771,-18.72,-33.66,-147.99
260,1203327627,0.2720,0.3521,0.5688,-14.51,-33.54,-141.34
261,1203332629,0.2529,0.4146,0.5571,-9.82,-33.41,-133.96
262,1203337628,0.2183,0.4883,0.5503,-5.73,-33.72,-126.10
263,1203342627,0.1816,0.5571,0.5410,-2.20,-33.90,-117.68
264,1203347628,0.1694,0.6162,0.5186,0.61,-34.21,-108.90
265,1203352736,0.1597,0.6787,0.4907,2.87,-34.39,-99.39
266,1203357628,0.1489,0.7563,0.4673,4.39,-34.51,-89.45
267,1203362627,0.1655,0.8291,0.4380,5.85,-34.27,-78.66
268,1203367629,0.1680,0.8691,0.3843,7.80,-33.96,-67.20
269,1203372629,0.1895,0.9370,0.3696,9.82,-33.29,-54.70
270,1203377629,0.2051,0.9834,0.3340,11.22,-32.62,-41.52
271,1203382628,0.2231,1.0288,0.2915,12.32,-31.65,-27.50
272,1203387629,0.2441,1.0645,0.2754,12.38,-30.55,-13.05
273,1203392629,0.2593,1.1001,0.2617,11.46,-29.02,2.01
274,1203397629,0.2803,1.1104,0.2412,9.45,-27.38,17.68
275,1203402627,0.3271,1.1079,0.2407,6.04,-25.49,33.66
276,1203407628,0.3677,1.1006,0.2505,1.04,-23.35,50.12
277,1203412630,0.3696,1.0903,0.2432,-5.85,-21.34,66.65
278,1203417629,0.3579,1.0757,0.2554,-14.15,-19.39,82.87
279,1203422629,0.3667,1.0562,0.2734,-22.99,-17.50,98.35
280,1203427628,0.3672,1.0229,0.2905,-30.55,-15.98,113.66
281,1203432627,0.3564,0.9697,0.2852,-35.00,-14.33,128.41
282,1203437629,0.3574,0.9121,0.2979,-35.73,-13.05,142.93
283,1203442627,0.3599,0.8618,0.3066,-32.93,-12.07,157.13
284,1203447627,0.3521,0.8149,0.3154,-26.89,-11.16,170.91
285,1203452629,0.3394,0.7729,0.3145,-18.29,-10.24,183.96
286,1203457628,0.3271,0.7197,0.3296,-7.56,-9.15,196.52
287,1203462629,0.3271,0.6562,0.3408,5.12,-7.68,208.66
288,1203467627,0.3506,0.5737,0.3608,19.45,-5.61,220.55
289,1203472629,0.4126,0.4370,0.4019,35.61,-3.11,232.44
290,1203477628,0.5044,0.2920,0.4326,52.80,-0.06,244.63
291,1203483111,0.4985,0.1909,0.4292,69.63,2.62,256.04
292,1203487629,0.4370,0.1094,0.4395,83.96,5.06,265.85
293,1203492627,0.3706,0.0278,0.4785,94.39,6.89,273.54
294,1203497629,0.3413,-0.0913,0.5410,100.67,8.66,279.21
295,1203502628,0.3564,-0.2305,0.5977,103.48,10.37,283.48
296,1203507627,0.3838,-0.3770,0.6372,103.54,11.52,286.52
297,1203512631,0.3745,-0.5244,0.6807,101.28,11.95,288.29
298,1203517629,0.3491,-0.6719,0.7349,96.89,11.28,288.29
299,1203522628,0.2866,-0.8618,0.7925,89.70,9.63,286.71
300,1203527628,2.1270,-7.2881,2.3389,78.05,7.07,199.27
301,1203532629,0.9561,-7.6528,0.1611,-0.91,20.55,71.59
302,1203537629,0.9746,-7.5874,-0.7700,-125.00,22.20,19.76
303,1203542690,1.1650,-4.3550,0.2510,-157.01,18.48,-4.15
304,1203547629,1.0947,-1.1865,0.9448,-131.34,15.37,-18.35
305,1203552628,0.7705,0.0269,0.6963,-84.02,9.88,-27.80
306,1203557627,0.7344,-0.7798,0.7593,-39.51,3.90,-32.80
307,1203562860,0.7554,-1.8604,1.0430,-1.71,0.49,-35.61
308,1203567629,0.7754,-2.0874,0.8613,28.48,-2.74,-38.48
309,1203572629,0.8184,-1.5933,0.6709,48.72,-7.44,-43.29
310,1203577629,0.8496,-1.1025,0.7759,56.16,-10.79,-50.18
311,1203582627,0.8647,-1.0537,0.7871,51.04,-12.62,-57.87
312,1203587629,0.8799,-1.2749,0.6577,34.76,-15.06,-65.49
313,1203592629,0.9082,-1.4248,0.6460,11.22,-16.95,-72.99
314,1203597628,0.9478,-1.3706,0.6743,-15.18,-17.93,-80.49
315,1203602627,0.9673,-1.2310,0.6021,-41.40,-18.41,-88.05
316,1203607629,0.9409,-1.1318,0.5630,-64.09,-18.90,-95.30
317,1203612940,0.9160,-1.1421,0.6060,-81.52,-18.84,-102.13
318,1203617629,0.8887,-1.1797,0.5928,-92.56,-18.60,-108.54
319,1203622627,0.8452,-1.1963,0.5586,-97.38,-18.48,-114.57
320,1203627629,0.7607,-1.1567,0.5781,-96.71,-17.93,-120.24
321,1203632774,0.6934,-1.0674,0.5776,-91.34,-17.01,-125.55
322,1203637629,0.7080,-1.0034,0.5396,-81.28,-15.79,-130.61
323,1203642635,0.7163,-0.9526,0.5112,-67.32,-14.57,-135.12
324,1203647629,0.7002,-0.9082,0.5044,-51.46,-13.29,-138.84
325,1203652628,0.6992,-0.8174,0.4688,-35.67,-11.89,-141.77
326,1203657674,0.6831,-0.7153,0.4360,-21.83,-10.67,-144.33
327,1203662629,0.6528,-0.6182,0.4229,-11.04,-9.63,-146.34
328,1203667629,0.6328,-0.5166,0.4072,-3.60,-8.35,-147.74
329,1203672629,0.6211,-0.4214,0.3853,0.55,-7.13,-148.54
330,1203677629,0.5938,-0.3271,0.3770,1.59,-5.98,-148.48
331,1203682628,0.5820,-0.2319,0.3823,0.24,-4.76,-147.44
332,1203687630,0.5815,-0.1396,0.3721,-2.38,-3.35,-145.73
333,1203692629,0.5684,-0.0459,0.3750,-6.04,-2.20,-143.17
334,1203697630,0.5332,0.0547,0.3882,-9.82,-0.79,-139.76
335,1203702627,0.5020,0.1567,0.3994,-13.11,0.43,-135.55
336,1203707629,0.4746,0.2480,0.4082,-15.06,1.65,-130.61
337,1203712627,0.4419,0.3394,0.4082,-15.06,2.56,-124.57
338,1203717629,0.4009,0.4419,0.4077,-13.29,3.29,-117.56
339,1203722627,0.3843,0.5508,0.4092,-10.06,3.72,-109.39
340,1203727627,0.3833,0.6655,0.4092,-5.98,3.96,-100.37
341,1203732629,0.3735,0.7646,0.3916,-1.34,4.21,-90.00
342,1203737628,0.3569,0.8525,0.3779,3.78,4.33,-78.41
343,1203742629,0.3540,0.9453,0.3535,9.39,4.27,-65.61
344,1203747627,0.3516,1.0293,0.3291,14.39,4.21,-51.40
345,1203752630,0.3452,1.1235,0.3052,18.35,3.90,-35.91
346,1203757628,0.3423,1.2139,0.2793,20.43,3.48,-19.51
347,1203762889,0.3433,1.3042,0.2583,20.24,3.29,-2.07
348,1203767629,0.3452,1.3750,0.2310,18.17,3.35,16.16
349,1203772664,0.3354,1.4355,0.2236,15.12,3.66,35.49
350,1203777629,0.3823,1.4727,0.2212,11.95,4.57,55.67
351,1203782629,0.4185,1.4761,0.2246,10.55,6.04,76.71
352,1203787628,0.4673,1.4614,0.2310,11.83,7.80,98.60
353,1203792629,0.4663,1.4277,0.2397,16.10,9.51,120.91
354,1203797628,0.4688,1.3662,0.2612,22.56,11.71,143.66
355,1203802722,0.4771,1.3003,0.2925,30.12,13.78,166.16
356,1203807627,0.4292,1.2183,0.3433,36.83,15.98,187.50
357,1203812627,0.3726,1.1235,0.3813,41.83,17.80,207.50
358,1203817627,0.3530,0.9893,0.4365,44.76,19.33,226.16
359,1203822627,0.3608,0.8501,0.5059,46.40,20.73,243.35
360,1203827627,0.3516,0.6948,0.5630,48.05,21.65,259.09
361,1203832629,0.3179,0.5508,0.5957,50.06,21.77,273.17
362,1203837627,0.2314,0.4185,0.6455,52.93,20.85,285.12
363,1203842629,0.1543,0.2695,0.7065,56.10,19.63,295.06
364,1203847628,0.1265,0.1084,0.7588,59.51,17.80,303.17
365,1203852629,0.0840,-0.0361,0.7954,63.35,15.43,309.57
366,1203857628,0.0103,-0.1904,0.8428,66.95,12.44,314.15
367,1203862664,0.2129,-3.2607,0.7871,68.72,8.35,314.94
368,1203867628,2.7651,-9.3394,-1.5610,7.32,31.34,169.63
369,1203872627,-0.2891,-3.6177,-1.8042,-97.74,28.23,14.63
370,1203877627,0.6021,-5.8950,1.3721,-90.43,21.46,-4.02
371,1203882627,1.2334,-4.6655,1.7788,-49.09,19.82,-5.30
372,1203887627,0.9512,-1.0596,0.2788,-6.22,11.28,-8.48
373,1203892629,0.5303,1.4614,0.6519,22.80,4.51,-13.66
374,1203897628,0.5391,0.8730,1.4600,36.71,4.88,-16.65
375,1203902627,0.7822,-0.9536,0.5396,40.49,2.38,-16.28
376,1203907627,0.7866,-1.7954,0.1812,30.55,-3.17,-15.43
377,1203912627,0.6904,-1.2515,0.7729,14.63,-3.41,-14.82
378,1203917627,0.6963,-0.3569,0.5728,-0.79,-2.38,-15.18
379,1203922673,0.7026,0.0239,0.1738,-14.02,-4.27,-15.61
380,1203927627,0.6748,-0.2148,0.4707,-26.16,-4.88,-15.43
381,1203932627,0.6807,-0.6567,0.5879,-37.26,-3.05,-14.27
382,1203937629,0.7158,-0.8350,0.2524,-47.07,-2.80,-12.87
383,1203942629,0.7271,-0.6675,0.2573,-55.49,-2.87,-11.59
384,1203947629,0.7290,-0.4512,0.4585,-62.38,-0.85,-10.79
385,1203952628,0.7334,-0.3936,0.3335,-68.41,1.28,-9.88
386,1203957629,0.7339,-0.4844,0.2314,-73.41,2.07,-8.90
387,1203962850,0.7139,-0.5967,0.3384,-77.74,3.66,-7.80
388,1203967629,0.7002,-0.6250,0.3442,-81.22,5.49,-6.59
389,1203972628,0.7114,-0.5718,0.2451,-84.27,6.83,-5.61
390,1203977706,0.7124,-0.5083,0.2788,-86.77,8.05,-4.63
391,1203982732,0.7031,-0.5093,0.3267,-89.27,9.94,-3.78
392,1203987627,0.6768,-0.5596,0.2871,-91.59,11.77,-2.87
393,1203992627,0.6396,-0.5771,0.2769,-93.35,13.23,-1.77
394,1203997627,0.6143,-0.5615,0.3096,-93.72,15.37,-0.73
395,1204002629,0.6138,-0.5410,0.2930,-91.95,17.32,0.24
396,1204007629,0.6177,-0.5244,0.2402,-87.87,19.09,1.28
397,1204012627,0.6250,-0.5225,0.2383,-82.32,20.79,2.62
398,1204017627,0.6284,-0.5244,0.2417,-75.67,22.56,3.96
399,1204022628,0.6353,-0.5186,0.2202,-68.96,24.51,5.73
400,1204027629,0.6538,-0.5103,0.2261,-62.62,26.40,7.38
401,1204032627,0.6777,-0.4971,0.2412,-57.13,28.60,9.45
402,1204037627,0.7041,-0.4741,0.2349,-53.11,31.04,11.34
403,1204042731,0.7090,-0.4805,0.2285,-50.67,33.23,13.48
404,1204047629,0.7163,-0.4917,0.2505,-49.94,35.30,15.85
405,1204052628,0.7241,-0.4780,0.2622,-51.28,37.38,18.35
406,1204057631,0.7471,-0.4507,0.2646,-54.70,39.15,20.85
407,1204062629,0.7637,-0.4429,0.2847,-59.88,40.49,23.11
408,1204067628,0.7607,-0.4453,0.3062,-66.46,41.71,25.37
409,1204072629,0.7480,-0.4507,0.3120,-74.27,42.74,27.62
410,1204077627,0.7329,-0.4580,0.3247,-82.74,43.48,30.06
411,1204082629,0.7158,-0.4688,0.3481,-91.71,43.66,32.62
412,1204087627,0.6968,-0.4634,0.3506,-100.91,43.60,35.06
413,1204092627,0.6714,-0.4556,0.3540,-109.76,43.11,37.38
414,1204097627,0.6289,-0.4644,0.3730,-117.99,42.32,39.57
415,1204102629,0.5771,-0.4678,0.3896,-124.88,41.22,41.71
416,1204107629,0.5283,-0.4717,0.3848,-129.76,39.82,43.72
417,1204112628,0.5161,-0.4854,0.3696,-132.13,37.87,45.73
418,1204117627,0.5151,-0.5127,0.3613,-132.44,35.49,48.11
419,1204122632,0.5366,-0.5400,0.3828,-131.40,32.62,50.49
420,1204127627,0.5635,-0.5527,0.3945,-129.39,29.51,53.23
421,1204132627,0.5898,-0.5493,0.4092,-127.13,26.71,55.55
422,1204137631,0.5986,-0.5542,0.4209,-124.88,23.60,57.56
423,1204142629,0.5903,-0.5508,0.4307,-122.93,20.61,58.96
424,1204147628,0.6021,-0.5474,0.4316,-122.07,17.50,60.12
425,1204152629,0.6108,-0.5918,0.4443,-122.68,14.51,60.85
426,1204157627,0.5806,-0.6240,0.5010,-124.51,11.77,61.46
427,1204162630,0.5435,-0.6406,0.5215,-126.28,9.70,61.77
428,1204167628,0.5371,-0.6401,0.5024,-126.65,7.50,61.77
429,1204172632,0.5732,-0.6577,0.4927,-124.09,5.00,61.34
430,1204177631,0.6270,-0.7070,0.4878,-119.15,2.26,60.79
431,1204182627,0.6670,-0.7676,0.4839,-112.01,-0.55,60.43
432,1204187628,0.7383,-0.7583,0.4600,-103.60,-3.54,60.12
433,1204192629,0.6699,-0.8667,0.4756,-95.12,-6.46,59.88
434,1204197630,0.5957,-0.9272,0.4453,-86.46,-9.27,60.12
435,1204202630,0.5483,-0.9473,0.4028,-77.74,-12.38,60.24
436,1204207627,0.5840,-0.9458,0.4062,-69.94,-15.67,60.00
437,1204212629,0.6465,-0.9365,0.4341,-63.84,-18.41,59.33
438,1204217628,0.6963,-0.9326,0.4336,-60.00,-20.73,57.93
439,1204222629,0.6973,-0.9458,0.4297,-58.05,-22.99,56.04
440,1204227627,0.6729,-0.9526,0.4204,-57.74,-24.82,53.78
441,1204232627,0.6641,-0.9624,0.4189,-58.60,-26.40,51.34
442,1204237629,0.6558,-0.9785,0.4126,-60.37,-28.17,48.60
443,1204242629,0.6426,-0.9961,0.4082,-62.01,-29.82,45.79
444,1204247629,0.6348,-1.0137,0.3833,-62.93,-31.28,42.93
445,1204252627,0.6509,-1.0303,0.3755,-62.56,-32.74,39.70
446,1204257629,0.6714,-1.0630,0.3628,-60.18,-34.09,36.59
447,1204262629,0.6660,-1.1113,0.3438,-55.85,-35.37,33.66
448,1204267628,0.6504,-1.1533,0.3066,-50.06,-37.01,30.98
449,1204272631,0.6279,-1.1777,0.2778,-43.48,-39.02,28.54
450,1204277627,0.6226,-1.1758,0.2729,-37.20,-41.04,25.91
451,1204282629,0.6309,-1.1382,0.2622,-32.26,-43.41,22.93
452,1204287628,0.5850,-1.1665,0.2729,-29.02,-45.67,19.57
453,1204292627,0.5410,-1.1904,0.2134,-27.26,-47.74,16.22
454,1204297629,0.5176,-1.2231,0.0532,-29.88,-49.70,12.50
455,1204302627,0.5195,-1.2383,0.0127,-37.74,-51.89,8.23
456,1204307630,0.5083,-1.2031,0.1387,-45.06,-52.93,4.15
457,1204312629,0.4111,-1.4355,-0.2358,-55.18,-53.90,-0.67
458,1204317629,0.4160,-1.1753,0.1040,-70.37,-54.70,-5.67
459,1204322628,0.5649,-1.0605,-0.0132,-80.85,-52.56,-11.89
460,1204327629,0.4707,-1.0981,-0.4824,-89.09,-53.35,-16.59
461,1204332629,0.4785,-1.1504,-0.2329,-96.77,-52.93,-20.85
462,1204337629,0.4233,-1.2207,-0.1880,-101.89,-49.70,-24.02
463,1204342627,0.4067,-1.0986,-0.4736,-107.74,-47.74,-27.13
464,1204347627,0.5239,-0.9937,-0.6030,-111.83,-46.40,-30.49
465,1204352627,0.5391,-0.9512,-0.3755,-112.87,-43.90,-32.80
466,1204357627,0.6021,-0.9692,-0.2954,-110.91,-40.98,-34.27
467,1204362631,0.6436,-1.0010,-0.3955,-105.43,-39.76,-34.88
468,1204367629,0.6572,-0.9771,-0.3403,-97.87,-39.33,-34.82
469,1204372629,0.6680,-0.9077,-0.1602,-88.96,-39.15,-34.88
470,1204377628,0.8154,-0.7158,-0.2085,-79.70,-39.15,-34.39
471,1204382627,0.6577,-0.5352,-0.1958,-67.50,-39.33,-32.87
472,1204387627,0.5410,-0.3599,-0.1436,-55.43,-38.29,-30.18
473,1204392627,0.3120,-0.4009,-0.1909,-43.90,-36.52,-26.52
474,1204397631,0.2959,-0.4014,-0.3584,-31.22,-35.61,-21.71
475,1204402627,0.3999,-0.4678,-0.2275,-18.05,-34.70,-17.20
476,1204407631,0.5073,-0.4922,-0.1880,-5.98,-33.96,-13.23
477,1204412628,0.4634,-0.5264,-0.2275,3.72,-33.66,-9.70
478,1204417631,0.4292,-0.5151,-0.2310,10.00,-33.60,-7.01
479,1204422627,0.4160,-0.5283,-0.1079,13.41,-32.80,-4.88
480,1204427629,0.4443,-0.5356,-0.0088,14.63,-30.73,-3.72
481,1204432629,0.4653,-0.6318,-0.0781,14.88,-28.60,-3.17
482,1204437627,0.5225,-0.7998,-0.2700,13.90,-26.95,-2.74
483,1204442629,0.5332,-0.8145,-0.1479,9.02,-25.49,-3.66
484,1204447628,0.5464,-0.8242,-0.1611,5.98,-23.60,-6.46
485,1204452627,0.6455,-0.8750,-0.3403,5.67,-23.84,-8.78
486,1204457627,0.6758,-0.9092,-0.2651,4.15,-24.39,-10.98
487,1204462629,0.6318,-0.9116,-0.1362,0.85,-23.96,-12.80
488,1204467628,0.5913,-0.8652,-0.2119,-2.07,-23.66,-14.15
489,1204472628,0.5464,-0.7764,-0.2114,-4.88,-24.33,-15.43
490,1204477629,0.5107,-0.6836,-0.0820,-7.74,-24.21,-16.71
491,1204482627,0.4946,-0.5708,-0.1084,-10.73,-24.39,-17.74
492,1204487632,0.4868,-0.5298,-0.1855,-14.63,-25.24,-18.60
493,1204492630,0.4800,-0.5669,-0.1694,-19.33,-26.04,-18.54
494,1204497627,0.4458,-0.5884,-0.1431,-24.21,-26.46,-17.93
495,1204502630,0.4023,-0.6069,-0.1719,-28.78,-27.07,-16.83
496,1204507629,0.3726,-0.6401,-0.1631,-32.56,-27.87,-15.79
497,1204512629,0.3569,-0.6992,-0.0957,-34.94,-28.29,-15.24
498,1204517630,0.3350,-0.7485,-0.0527,-35.55,-28.66,-15.24
499,1204522828,0.3340,-0.7676,-0.0400,-34.09,-29.27,-15.61
500,1204527629,0.3442,-0.7959,-0.0669,-30.98,-29.88,-16.22
501,1204532629,0.3677,-0.8306,-0.0771,-26.34,-30.12,-16.77
502,1204537709,0.4004,-0.8721,-0.0630,-20.18,-30.18,-16.95
503,1204542629,0.4209,-0.9185,-0.0684,-13.05,-29.94,-16.71
504,1204547629,0.4258,-0.9541,-0.0693,-4.27,-28.90,-15.91
505,1204552629,0.4609,-0.8398,-0.2026,6.77,-28.29,-15.06
506,1204557628,0.5063,-0.7402,-0.2812,20.00,-29.39,-15.49
507,1204562627,0.5405,-0.7588,-0.1787,33.35,-30.85,-15.98
508,1204567627,0.5562,-0.7856,-0.0815,45.79,-31.83,-15.79
509,1204572627,0.5737,-0.7812,-0.0732,56.77,-32.38,-15.06
510,1204577752,0.6069,-0.7778,-0.1191,66.59,-33.05,-14.33
511,1204582629,0.6528,-0.7803,-0.1201,74.82,-34.21,-13.41
512,1204587629,0.6670,-0.7563,-0.1157,80.18,-35.55,-12.68
513,1204592629,0.6802,-0.7344,-0.2231,82.26,-36.71,-11.95
514,1204597628,0.6611,-0.7031,-0.2144,82.74,-37.32,-11.34
515,1204602629,0.6636,-0.7168,-0.1445,80.79,-36.95,-10.91
516,1204607627,0.6597,-0.7441,-0.1396,76.95,-36.04,-11.04
517,1204612629,0.6328,-0.7988,-0.1221,72.26,-34.57,-11.28
518,1204617629,0.6768,-0.7935,-0.1699,68.66,-33.48,-12.07
519,1204622627,0.6777,-0.8311,-0.1680,68.17,-33.17,-13.66
520,1204627627,0.6445,-0.8984,-0.1133,70.67,-32.99,-15.91
521,1204632629,0.6240,-0.9307,-0.0610,75.67,-33.11,-18.17
522,1204637671,0.6519,-0.9370,-0.0259,83.05,-33.23,-20.55
523,1204642629,0.6831,-0.9287,0.0112,92.26,-33.35,-22.99
524,1204647629,0.7026,-0.9165,0.0283,101.89,-34.09,-25.37
525,1204652627,0.7212,-0.9165,0.0376,111.46,-35.00,-27.38
526,1204657629,0.7495,-0.9062,0.0508,119.88,-36.10,-28.96
527,1204662627,0.7852,-0.8960,0.0693,126.22,-37.38,-30.30
528,1204667627,0.8296,-0.9014,0.0640,130.00,-38.78,-31.52
529,1204672627,0.8271,-0.9155,0.0679,131.89,-40.06,-32.62
530,1204677630,0.8345,-0.9565,0.0605,131.22,-41.40,-33.66
531,1204682627,0.8750,-0.9741,0.0645,128.29,-42.50,-34.39
532,1204687627,0.9277,-0.9746,0.0889,124.09,-43.60,-35.30
533,1204692627,0.9077,-0.9956,0.0903,119.39,-44.70,-36.65
534,1204697631,0.8535,-1.0493,0.0679,114.02,-45.85,-38.78
535,1204702629,0.8208,-1.0786,0.0986,108.41,-46.89,-41.65
536,1204707629,0.8599,-1.0977,0.1406,103.54,-47.93,-45.55
537,1204712628,0.9102,-1.1157,0.1372,99.09,-49.15,-49.76
538,1204717630,0.9395,-1.1157,0.1362,94.21,-50.30,-54.27
539,1204722627,0.9727,-1.0869,0.1304,87.74,-51.46,-58.60
540,1204727629,1.0186,-1.0347,0.1519,80.30,-52.44,-62.68
541,1204732630,1.0479,-0.9995,0.1421,72.32,-53.35,-66.40
542,1204737627,1.0654,-0.9717,0.1177,64.76,-54.09,-69.76
543,1204742707,1.0859,-0.9565,0.0859,58.54,-54.51,-72.56
544,1204747638,1.1187,-0.9370,0.0845,54.88,-54.82,-75.06
545,1204752629,1.1348,-0.9229,0.0835,55.00,-55.00,-77.32
546,1204757628,1.1367,-0.9121,0.0869,58.60,-55.06,-79.39
547,1204762629,1.1392,-0.9014,0.0889,64.09,-55.49,-81.77
548,1204767627,1.1719,-0.8882,0.1113,70.49,-55.85,-84.02
549,1204772629,1.2012,-0.8838,0.1343,76.59,-56.22,-86.34
550,1204777628,1.1943,-0.8750,0.1250,81.71,-56.65,-88.66
551,1204782627,1.1807,-0.8574,0.1123,84.76,-57.26,-91.10
552,1204787631,1.1606,-0.8223,0.1050,85.18,-58.05,-93.96
553,1204792627,1.1499,-0.8032,0.1167,83.54,-58.84,-97.32
554,1204797629,1.1558,-0.7793,0.1245,80.73,-59.88,-100.91
555,1204802629,1.1572,-0.7568,0.1372,77.56,-61.16,-104.51
556,1204807628,1.1606,-0.7417,0.1475,75.18,-62.87,-107.93
557,1204812627,1.1685,-0.7290,0.1768,73.72,-64.82,-111.04
558,1204817628,1.1797,-0.7188,0.1982,73.11,-67.01,-113.84
559,1204822630,1.1816,-0.6992,0.2134,73.11,-69.39,-116.59
560,1204827627,1.1968,-0.7109,0.2251,73.11,-72.01,-119.45
561,1204832627,1.2217,-0.7119,0.2344,72.62,-74.70,-122.07
562,1204837629,1.2290,-0.7090,0.2275,71.65,-77.50,-124.70
563,1204842628,1.2227,-0.6909,0.2192,70.06,-80.61,-127.20
564,1204847943,1.2251,-0.6733,0.2134,68.29,-83.66,-129.39
565,1204852631,1.2329,-0.6577,0.2075,66.71,-86.65,-131.34
566,1204857628,1.2588,-0.6582,0.2134,65.61,-89.63,-133.11
567,1204862629,1.2783,-0.6509,0.2246,65.73,-92.74,-134.45
568,1204867627,1.2817,-0.6343,0.2295,67.13,-95.12,-135.67
569,1204872629,1.2783,-0.6230,0.2349,69.70,-97.56,-136.77
570,1204877628,1.2817,-0.6230,0.2300,72.99,-99.76,-138.23
571,1204882630,1.2988,-0.6406,0.2319,76.34,-101.77,-139.88
572,1204887627,1.3120,-0.6748,0.2144,78.66,-103.66,-141.59
573,1204892629,1.3296,-0.7002,0.1958,78.96,-105.55,-143.72
574,1204897629,1.3379,-0.7256,0.1826,77.01,-107.44,-145.91
575,1204902627,1.3198,-0.7324,0.1660,72.99,-109.33,-148.17
576,1204907629,1.2793,-0.7153,0.1440,67.56,-111.22,-150.43
577,1204912629,1.2456,-0.6929,0.1323,62.32,-113.23,-152.87
578,1204917628,1.2202,-0.6680,0.1118,57.62,-115.18,-155.18
579,1204922628,1.2065,-0.6538,0.0869,54.39,-117.01,-157.20
580,1204927627,1.1860,-0.6221,0.0806,52.38,-118.72,-158.96
581,1204932631,1.1787,-0.6021,0.0845,51.28,-120.00,-160.49
582,1204937628,1.1831,-0.6094,0.0864,50.85,-120.91,-161.89
583,1204942627,1.1875,-0.6260,0.0762,51.46,-121.89,-163.41
584,1204947627,1.1963,-0.6353,0.0767,52.26,-122.32,-164.70
585,1204952627,1.1982,-0.6367,0.0771,52.99,-122.74,-166.10
586,1204957627,1.1958,-0.6494,0.0767,53.66,-122.56,-167.93
587,1204962629,1.2080,-0.6582,0.0679,54.82,-122.07,-170.00
588,1204967627,1.2114,-0.6636,0.0493,56.83,-121.59,-172.07
589,1204972678,1.2051,-0.6738,0.0405,59.70,-120.79,-174.51
590,1204977627,1.1895,-0.6821,0.0312,62.20,-119.88,-177.01
591,1204982628,1.1704,-0.6924,0.0386,62.93,-119.82,-179.57
592,1204987861,1.1396,-0.6914,0.0454,62.13,-119.82,-182.44
593,1204992630,1.1089,-0.6865,0.0332,60.24,-120.37,-185.30
594,1204997627,1.0894,-0.6812,0.0156,57.93,-121.16,-188.11
595,1205002628,1.0796,-0.6714,0.0083,55.12,-122.07,-190.61
596,1205007627,1.0830,-0.6548,0.0098,52.01,-123.05,-192.99
597,1205012674,1.0771,-0.6460,0.0195,49.02,-124.33,-195.12
598,1205017627,1.0684,-0.6401,0.0171,46.71,-125.79,-196.77
599,1205022631,1.0430,-0.6128,0.0190,44.45,-127.26,-198.23
600,1205027628,1.0186,-0.5747,0.0195,42.20,-128.78,-199.45
601,1205032627,0.9995,-0.5498,0.0220,39.76,-130.24,-200.43
602,1205037630,1.0098,-0.5498,0.0142,37.13,-131.65,-201.10
603,1205042627,0.9888,-0.5464,-0.0049,34.51,-132.99,-201.65
604,1205047629,0.9517,-0.5332,-0.0215,31.95,-134.09,-202.26
605,1205052628,0.9229,-0.5225,-0.0430,29.39,-135.30,-202.68
606,1205057627,0.9058,-0.5186,-0.0527,27.68,-136.04,-203.35
607,1205062627,0.8979,-0.5249,-0.0669,26.83,-136.46,-203.66
608,1205067627,0.8984,-0.5195,-0.0796,26.77,-137.01,-204.02
609,1205072631,0.9009,-0.5107,-0.0854,27.20,-137.20,-204.15
610,1205077981,0.9058,-0.5107,-0.1016,27.01,-137.62,-204.45
611,1205082629,0.8916,-0.5093,-0.1035,25.79,-137.56,-204.94
612,1205087629,0.8872,-0.5107,-0.1035,23.72,-137.38,-205.67
613,1205092629,0.8696,-0.5117,-0.0889,21.59,-136.95,-206.46
614,1205097627,0.8374,-0.5068,-0.0688,19.57,-136.46,-207.32
615,1205102627,0.8022,-0.5005,-0.0439,17.62,-136.04,-208.54
616,1205107629,0.7881,-0.4863,-0.0396,15.98,-135.49,-209.88
617,1205112750,0.7974,-0.4844,-0.0625,15.30,-134.76,-211.22
618,1205117630,0.8237,-0.4805,-0.0635,15.67,-133.84,-212.32
619,1205122630,0.8652,-0.4746,-0.0547,16.71,-133.05,-212.93
620,1205127628,0.8970,-0.4839,-0.0483,17.50,-132.56,-213.17
621,1205132629,0.9116,-0.4775,-0.0532,17.68,-132.56,-213.05
622,1205137628,0.9126,-0.4722,-0.0610,17.62,-132.80,-212.68
623,1205142631,0.9102,-0.4727,-0.0625,18.72,-133.23,-212.20
624,1205147627,0.8809,-0.4683,-0.0894,21.22,-133.29,-211.77
625,1205152627,0.8286,-0.4521,-0.1104,23.35,-133.72,-211.40
626,1205157631,0.7705,-0.4253,-0.1040,23.66,-134.02,-211.10
627,1205162628,0.7041,-0.3970,-0.1021,22.50,-134.76,-210.73
628,1205167686,0.6362,-0.3706,-0.1255,21.04,-135.30,-210.30
629,1205172629,0.5811,-0.3589,-0.1489,20.37,-135.49,-209.70
630,1205177627,0.5386,-0.3521,-0.1699,20.55,-135.43,-209.15
631,1205182630,0.5005,-0.3325,-0.1987,21.10,-135.06,-208.66
632,1205187629,0.4790,-0.3052,-0.2373,21.40,-134.09,-208.05
633,1205192627,0.4805,-0.2886,-0.2822,21.34,-132.74,-207.32
634,1205197631,0.4912,-0.2720,-0.3271,21.52,-131.04,-206.16
635,1205202632,0.4863,-0.2510,-0.3755,22.20,-128.96,-204.76
636,1205207628,0.4854,-0.2456,-0.4150,22.32,-126.71,-202.99
637,1205212629,0.4780,-0.2324,-0.4609,21.46,-124.27,-200.91
638,1205217627,0.4663,-0.2158,-0.4888,19.94,-121.52,-198.72
639,1205222629,0.4609,-0.1904,-0.5142,18.48,-118.54,-196.46
640,1205227630,0.4497,-0.1816,-0.5308,17.93,-115.24,-194.27
641,1205232629,0.4277,-0.1797,-0.5562,18.35,-111.59,-192.20
642,1205237629,0.4106,-0.1616,-0.5869,19.33,-107.74,-190.37
643,1205242627,0.3760,-0.1377,-0.6011,19.94,-103.78,-188.41
644,1205247630,0.3296,-0.0981,-0.6201,20.06,-99.82,-186.46
645,1205252629,0.2666,-0.0605,-0.6470,19.39,-95.49,-184.57
646,1205257627,0.2104,-0.0229,-0.6670,18.66,-90.73,-182.80
647,1205262627,0.1724,0.0132,-0.6748,18.54,-85.67,-180.85
648,1205267631,0.1602,0.0435,-0.6938,19.70,-80.61,-178.48
649,1205272632,0.1348,0.0820,-0.7056,21.22,-75.55,-175.73
650,1205277628,0.0869,0.1338,-0.7310,22.74,-70.24,-172.74
651,1205282629,0.0674,0.1543,-0.7578,24.51,-65.12,-169.45
652,1205287627,0.0591,0.1772,-0.7842,26.22,-60.06,-165.67
653,1205292628,0.0503,0.2124,-0.7925,27.13,-55.12,-161.65
654,1205297631,0.0605,0.2319,-0.7920,27.50,-50.73,-157.56
655,1205302629,0.0776,0.2314,-0.8076,28.78,-46.52,-153.05
656,1205307628,0.0859,0.2407,-0.8271,31.34,-42.93,-148.23
657,1205312629,0.0571,0.2588,-0.8252,33.72,-39.51,-143.60
658,1205317627,0.0205,0.2568,-0.8306,35.06,-36.59,-138.96
659,1205322627,0.0054,0.2480,-0.8364,34.94,-34.02,-134.63
660,1205327631,-0.0063,0.2354,-0.8271,33.17,-31.89,-130.49
661,1205332629,-0.0259,0.2422,-0.8242,30.18,-30.06,-126.71
662,1205337628,-0.0308,0.2319,-0.8325,26.83,-28.41,-123.11
663,1205342629,-0.0195,0.2075,-0.8223,24.51,-26.95,-119.63
664,1205347627,-0.0083,0.1870,-0.7974,22.38,-25.55,-116.16
665,1205352627,-0.0024,0.1753,-0.7812,19.45,-24.45,-112.87
666,1205357629,0.0049,0.1572,-0.7773,17.01,-23.48,-109.88
667,1205362629,0.0283,0.1416,-0.7769,16.95,-22.38,-106.83
668,1205367628,0.0298,0.1206,-0.7734,18.17,-21.10,-104.15
669,1205372629,-0.0088,0.1055,-0.7485,18.05,-20.18,-101.77
670,1205377627,-0.0557,0.0913,-0.7231,15.30,-19.33,-100.06
671,1205382629,-0.1011,0.0811,-0.7148,11.89,-18.66,-98.90
672,1205387628,-0.1094,0.0967,-0.7158,8.54,-17.80,-98.23
673,1205392630,-0.0737,0.1084,-0.7153,6.40,-17.07,-97.62
674,1205397627,-0.0342,0.1377,-0.7158,5.37,-16.40,-96.77
675,1205402631,-0.0063,0.1670,-0.7002,4.21,-15.98,-95.67
676,1205407628,0.0220,0.1777,-0.6709,3.35,-15.73,-94.39
677,1205412627,0.0601,0.1729,-0.6592,4.27,-15.67,-92.50
678,1205417627,0.0942,0.1597,-0.6519,6.52,-15.79,-90.06
679,1205422627,0.1025,0.1494,-0.6504,8.11,-16.16,-87.26
680,1205427627,0.0952,0.1426,-0.6470,7.38,-16.89,-84.45
681,1205432627,0.0732,0.1367,-0.6167,4.21,-17.93,-81.40
682,1205437627,0.0767,0.1284,-0.6104,0.49,-18.84,-78.35
683,1205442627,0.0210,0.1343,-0.6030,-2.87,-19.82,-75.37
684,1205447627,-0.0723,0.1929,-0.5977,-7.01,-20.79,-72.80
685,1205452627,-0.1436,0.2393,-0.5957,-10.79,-21.34,-70.73
686,1205457725,-0.1470,0.2666,-0.6001,-11.83,-21.52,-68.90
687,1205462627,-0.1460,0.2930,-0.5952,-9.51,-21.46,-66.59
688,1205467628,-0.1675,0.3325,-0.5757,-6.65,-21.40,-64.33
689,1205472627,-0.1709,0.3628,-0.5674,-4.63,-21.59,-62.07
690,1205477627,-0.1416,0.3794,-0.6079,-2.20,-21.16,-59.70
691,1205482627,-0.0996,0.3892,-0.6367,1.16,-20.30,-56.59
692,1205487627,-0.0776,0.3901,-0.6353,5.00,-19.27,-53.23
693,1205492627,-0.0493,0.3848,-0.6284,8.48,-18.29,-49.39
694,1205497627,-0.0005,0.3652,-0.6343,11.77,-17.56,-44.94
695,1205502627,0.0522,0.3525,-0.6416,14.88,-16.89,-39.63
696,1205507632,0.0605,0.3364,-0.6382,16.46,-16.34,-33.48
697,1205512627,0.0122,0.3232,-0.6162,15.30,-16.22,-27.07
698,1205517627,-0.1030,0.3374,-0.5933,10.91,-16.40,-21.46
699,1205522833,-0.2427,0.3457,-0.5884,5.85,-16.28,-16.89
700,1205527631,-0.3198,0.3311,-0.6216,3.78,-15.79,-13.11
701,1205533140,-0.3765,0.3262,-0.6353,5.91,-14.76,-10.06
702,1205537629,-0.4438,0.3433,-0.6172,10.06,-13.41,-7.32
703,1205542628,-0.4805,0.3716,-0.5977,13.84,-12.01,-4.88
704,1205547629,-0.4873,0.3760,-0.6021,17.87,-10.43,-2.26
705,1205552629,-0.4624,0.3364,-0.6377,22.68,-8.41,1.22
706,1205557629,-0.5000,0.3135,-0.6689,26.28,-6.46,5.43
707,1205562628,-0.5332,0.2769,-0.6768,27.01,-4.51,10.12
708,1205567629,-0.5352,0.2349,-0.7041,26.04,-2.80,15.55
709,1205572627,-0.5415,0.1899,-0.7129,25.18,-0.85,22.26
710,1205577756,-0.5498,0.1543,-0.7095,25.61,0.73,30.85
711,1205582629,-0.5835,0.1128,-0.7041,27.01,2.38,41.59
712,1205587629,-0.6733,0.0840,-0.6997,27.80,4.09,54.70
713,1205592629,-0.7739,0.0703,-0.6982,26.28,5.91,70.06
714,1205597628,-0.9214,0.0605,-0.6763,22.50,8.11,87.44
715,1205602629,-1.1177,0.0269,-0.6357,17.93,10.55,107.01
716,1205607628,-1.3706,0.0098,-0.5747,11.77,13.29,128.29
717,1205612627,-1.6343,-0.0059,-0.5205,2.44,15.61,150.98
718,1205617631,-1.8936,-0.0112,-0.4692,-9.51,18.23,174.33
719,1205622627,-2.1978,-0.0127,-0.4224,-22.01,21.28,198.35
720,1205627627,-2.6455,0.0386,-0.3496,-35.49,24.94,221.83
721,1205632627,-3.1284,0.0635,-0.2446,-50.91,28.96,244.21
722,1205637631,-3.4619,-0.0088,-0.1636,-65.43,34.09,266.28
723,1205642628,-3.7183,-0.0918,-0.1108,-76.10,39.82,288.78
724,1205647629,-4.0508,-0.1328,-0.7002,-79.09,45.73,312.07
725,1205652627,-4.2964,-0.3076,-0.6387,-63.60,54.57,337.62
726,1205658185,-4.4097,-0.4111,-0.3687,-42.01,68.60,364.63
727,1205662631,-4.4736,-0.3984,-0.8940,-18.66,81.83,393.78
728,1205667628,-4.5493,-0.4482,-0.9243,-6.46,97.44,425.43
729,1205672629,-4.6484,-0.5059,-0.9771,2.38,117.44,459.45
730,1205677627,-5.0884,-0.7129,-1.3716,10.61,135.37,494.39
731,1205682627,-5.3833,-0.8042,-1.4536,9.02,153.29,529.57
732,1205687629,-5.8169,-0.6724,-1.6763,-6.10,172.87,567.26
733,1205692629,-6.0347,-0.6816,-1.8496,-27.20,191.71,608.90
734,1205697628,-6.1650,-1.0977,-1.8203,-39.76,208.84,653.78
735,1205702630,-6.2612,-1.5928,-1.6953,-43.84,224.45,699.15
736,1205707627,-6.2778,-2.0532,-1.5952,-44.88,239.45,743.17
737,1205712631,-6.2832,-2.5640,-1.5420,-47.20,253.60,785.00
738,1205717660,-6.3311,-3.0918,-1.4370,-53.29,266.65,823.72
739,1205722797,-6.4316,-3.6597,-1.2568,-63.48,278.41,858.29
740,1205727629,-6.5195,-4.2759,-1.0815,-74.76,288.72,888.29
741,1205732627,-6.5698,-4.8633,-0.9019,-84.02,297.62,913.78
742,1205737630,-6.5029,-5.4800,-0.6499,-89.39,305.73,934.09
743,1205742629,-6.3984,-6.0889,-0.4204,-90.91,324.09,949.02
744,1205747629,-6.4111,-6.6396,-0.2036,-87.93,320.12,957.56
745,1205752629,-6.3662,-7.1978,0.0698,-84.70,324.70,958.72
746,1205757629,-6.1514,-7.7031,0.3716,-81.04,329.33,952.87
747,1205762628,-5.8950,-8.1729,0.7075,-76.83,332.20,940.67
748,1205767629,-5.5625,-8.5332,1.0532,-73.54,334.57,922.38
749,1205772627,-5.0483,-8.8672,1.3618,-71.28,335.91,899.45
750,1205777628,-4.3662,-9.2144,1.5654,-66.40,335.30,874.57
751,1205782629,-3.6094,-9.5190,1.7949,-59.09,333.84,849.45
752,1205787628,-2.7622,-9.7329,2.0283,-53.35,331.77,824.09
753,1205792629,-1.9912,-9.9009,2.1958,-49.45,329.39,798.60
754,1205797627,-1.4185,-10.0259,2.3208,-44.94,325.79,772.32
755,1205802630,-0.9707,-10.1128,2.4409,-38.05,320.43,744.39
756,1205807628,-0.6436,-10.1382,2.5508,-29.27,312.74,713.78
757,1205812631,-0.3901,-10.1206,2.6440,-22.32,303.17,679.63
758,1205817627,-0.1445,-10.0571,2.7495,-17.74,291.77,641.34
759,1205822627,0.0352,-9.8999,2.8896,-17.50,278.84,599.15
760,1205827627,0.1855,-9.6592,3.0508,-25.00,264.57,553.48
761,1205832629,0.3281,-9.4004,3.1694,-37.93,249.15,504.57
762,1205837628,0.4468,-9.0815,3.2622,-51.34,232.87,453.78
763,1205842627,0.5747,-8.7241,3.3174,-62.87,216.10,402.56
764,1205847629,0.7285,-8.2979,3.3296,-71.71,199.21,352.38
765,1205852629,0.9058,-7.8516,3.2725,-75.73,183.35,304.27
766,1205857627,1.1133,-7.4121,3.1572,-72.62,168.41,260.06
767,1205862628,1.2944,-6.9404,3.0322,-65.61,154.21,220.37
768,1205867627,1.4824,-6.4434,2.8877,-58.90,141.95,185.24
769,1205872631,1.6655,-5.9448,2.7207,-54.02,131.04,154.45
770,1205877629,1.8511,-5.4502,2.5396,-50.24,121.40,128.11
771,1205882629,1.9678,-4.9663,2.3320,-46.95,112.87,106.10
772,1205887629,2.0488,-4.4922,2.1299,-44.09,105.00,88.17
773,1205892628,2.0918,-4.0171,1.9404,-42.26,98.29,73.35
774,1205897629,2.0898,-3.5786,1.7461,-42.07,92.20,61.71
775,1205902627,2.0703,-3.1587,1.5825,-44.27,86.04,52.68
776,1205907628,2.0493,-2.7695,1.4409,-49.27,82.50,46.04
777,1205912631,2.0503,-2.4160,1.3120,-56.65,78.48,41.40
778,1205917628,2.0527,-2.1108,1.1685,-65.00,74.76,38.78
779,1205922627,2.0132,-1.8662,1.0312,-74.02,70.91,37.74
780,1205927627,1.8999,-1.6411,0.9194,-85.24,67.01,37.44
781,1205932629,1.7549,-1.4346,0.8706,-98.66,63.11,37.50
782,1205937628,1.6860,-1.2466,0.8086,-111.22,59.57,37.74
783,1205942629,1.6494,-1.1099,0.7275,-118.05,56.46,38.66
784,1205947627,1.5791,-0.9800,0.6689,-116.28,53.96,40.55
785,1205952627,1.5601,-0.8208,0.6138,-106.10,52.20,42.80
786,1205957629,1.5630,-0.7256,0.5615,-88.90,51.34,45.79
787,1205962628,1.5137,-0.6279,0.4946,-67.68,51.22,49.70
788,1205967705,1.4961,-0.5464,0.4927,-46.04,51.83,53.35
789,1205972631,1.4038,-0.4282,0.3945,-26.89,53.05,57.20
790,1205977628,1.3169,-0.3931,0.3608,-12.26,54.21,60.79
791,1205982629,1.2534,-0.3711,0.3135,-3.96,55.37,64.27
792,1205987627,1.1763,-0.3789,0.2480,-3.41,55.85,66.95
793,1205992629,1.1157,-0.3936,0.2061,-9.45,55.85,68.96
794,1205997628,1.0713,-0.4268,0.1855,-20.06,55.43,70.18
795,1206002627,0.9946,-0.4648,0.1455,-32.20,54.27,70.91
796,1206007629,0.9233,-0.5142,0.1191,-42.87,52.62,70.73
797,1206012627,0.8555,-0.5659,0.1187,-49.76,50.24,69.94
798,1206017629,0.8604,-0.6250,0.1045,-50.12,47.93,68.84
799,1206022630,0.8740,-0.6787,0.1050,-43.96,45.43,67.80
800,1206027629,0.8882,-0.6982,0.1099,-32.99,43.23,67.26
801,1206032628,0.9072,-0.7144,0.1206,-20.12,41.89,66.89
802,1206037629,0.9512,-0.7603,0.1362,-7.32,40.55,67.20
803,1206042627,0.9395,-0.7861,0.1362,3.60,39.70,67.74
804,1206047809,0.8545,-0.8115,0.1460,10.55,39.09,67.74
805,1206052629,0.7700,-0.8501,0.1577,13.29,38.72,67.01
806,1206057630,0.6812,-0.8896,0.1631,12.44,38.11,65.30
807,1206062658,0.5776,-0.9204,0.1475,8.84,37.32,62.56
808,1206067627,0.4844,-0.9609,0.1411,4.21,35.85,58.78
809,1206072630,0.3887,-1.0020,0.1260,-1.22,33.84,53.17
810,1206077629,0.3374,-1.0225,0.1016,-4.33,31.95,47.87
811,1206082631,0.3135,-1.0298,0.0845,-5.43,30.18,43.60
812,1206087628,0.2998,-1.0396,0.0649,-5.18,28.05,38.29
813,1206092629,0.2915,-1.0483,0.0601,-3.60,26.28,33.29
814,1206097627,0.2822,-1.0498,0.0415,-1.16,24.45,28.66
815,1206102629,0.2993,-1.0371,0.0225,2.07,22.99,24.70
816,1206107628,0.3374,-1.0264,0.0137,6.52,21.77,21.22
817,1206112628,0.3672,-1.0303,-0.0034,11.89,20.37,18.48
818,1206117631,0.3936,-1.0356,-0.0093,17.50,19.39,16.28
819,1206122631,0.3984,-1.0273,0.0044,22.26,18.41,14.63
820,1206127628,0.3921,-1.0308,0.0044,25.67,17.44,12.99
821,1206132627,0.3818,-1.0322,0.0122,27.13,16.40,11.71
822,1206137630,0.3618,-1.0181,0.0332,26.34,15.49,10.18
823,1206142627,0.3223,-0.9858,0.0469,23.54,14.21,8.41
824,1206147627,0.2886,-0.9663,0.0508,19.27,12.99,6.34
825,1206152627,0.2524,-0.9502,0.0508,14.82,11.59,4.21
826,1206157627,0.2158,-0.9355,0.0396,11.34,9.88,2.32
827,1206162627,0.1699,-0.9131,0.0269,9.15,8.05,0.98
828,1206167627,0.1592,-0.8833,0.0078,8.23,6.28,0.06
829,1206173159,0.1621,-0.8369,-0.0127,8.41,4.33,-0.24
830,1206177985,0.1704,-0.7910,-0.0352,9.27,2.87,0.00
831,1206182629,0.1885,-0.7495,-0.0630,10.18,1.34,0.73
832,1206187629,0.2061,-0.7046,-0.0830,11.04,0.18,1.83
833,1206192628,0.2065,-0.6826,-0.0928,11.16,-0.85,2.99
834,1206197632,0.2168,-0.6851,-0.0879,10.55,-1.28,4.21
835,1206202629,0.2202,-0.6870,-0.0967,9.82,-1.10,5.98
836,1206207628,0.2124,-0.6841,-0.0864,9.15,-0.49,7.50
837,1206212629,0.2104,-0.7163,-0.0708,8.90,0.61,8.90
838,1206217629,0.2026,-0.7524,-0.0610,9.57,2.01,10.55
839,1206222629,0.1875,-0.7944,-0.0542,11.71,3.54,12.44
840,1206227630,0.1733,-0.8252,-0.0591,15.12,5.06,14.15
841,1206232629,0.1646,-0.8418,-0.0571,19.33,6.40,15.91
842,1206237628,0.1465,-0.8506,-0.0522,23.41,7.56,17.20
843,1206242629,0.1138,-0.8491,-0.0405,26.59,8.29,17.99
844,1206247628,0.0859,-0.8457,-0.0293,28.05,8.90,18.11
845,1206252630,0.0542,-0.8418,-0.0312,27.44,9.09,17.50
846,1206257629,0.0220,-0.8413,-0.0322,25.37,9.15,16.46
847,1206262628,-0.0283,-0.8413,-0.0425,21.77,8.35,14.82
848,1206267627,-0.0693,-0.8296,-0.0347,17.56,7.56,12.80
849,1206272629,-0.0713,-0.8408,-0.0312,14.02,6.89,10.61
850,1206277631,-0.0557,-0.8521,-0.0361,12.44,6.40,8.96
851,1206282629,-0.0381,-0.8506,-0.0444,12.74,5.85,7.56
852,1206287630,-0.0249,-0.8643,-0.0493,15.12,5.79,6.52
853,1206292629,-0.0088,-0.8740,-0.0459,18.96,6.04,6.04
854,1206297627,0.0059,-0.8818,-0.0508,23.11,6.65,5.73
855,1206302628,0.0181,-0.8779,-0.0488,26.95,7.62,5.85
856,1206307629,0.0361,-0.8862,-0.0513,30.24,9.02,6.04
857,1206312628,0.0620,-0.8887,-0.0542,32.50,10.49,6.59
858,1206317630,0.0645,-0.8784,-0.0610,33.90,12.20,6.95
859,1206322744,0.0757,-0.8755,-0.0728,34.51,13.66,7.26
860,1206327631,0.0898,-0.8638,-0.0781,34.15,15.06,7.26
861,1206332628,0.0942,-0.8682,-0.0840,32.56,16.34,7.07
862,1206337627,0.0933,-0.8682,-0.0854,30.12,17.38,6.65
863,1206342627,0.0771,-0.8599,-0.0874,27.13,18.11,5.91
864,1206347630,0.0425,-0.8667,-0.0874,23.72,18.66,4.82
865,1206352627,0.0259,-0.8613,-0.0938,21.22,19.15,3.72
866,1206357627,0.0225,-0.8706,-0.1084,19.70,19.21,2.44
867,1206362627,0.0117,-0.8701,-0.1074,19.63,19.33,0.91
868,1206367627,-0.0005,-0.8604,-0.1035,20.37,19.27,-0.67
869,1206372931,-0.0127,-0.8472,-0.1104,21.28,19.27,-2.44
870,1206377629,-0.0161,-0.8315,-0.0972,22.32,19.21,-4.45
871,1206382629,-0.0239,-0.8140,-0.1094,23.60,19.27,-6.59
872,1206387629,-0.0342,-0.8218,-0.1016,24.63,19.27,-8.48
873,1206392628,-0.0420,-0.8311,-0.1182,25.79,19.51,-9.88
874,1206397629,-0.0581,-0.8335,-0.1406,26.95,19.45,-10.73
875,1206402627,-0.0688,-0.8433,-0.1450,27.56,19.33,-10.91
876,1206407629,-0.0581,-0.8530,-0.1646,27.87,19.27,-10.61
877,1206412628,-0.0239,-0.8599,-0.1895,27.62,19.27,-9.51
878,1206417628,-0.0171,-0.8696,-0.2222,26.22,19.15,-7.99
879,1206422629,-0.0034,-0.8711,-0.2402,23.05,18.96,-6.34
880,1206427630,0.0137,-0.8574,-0.2529,17.68,18.90,-5.00
881,1206432629,0.0376,-0.8496,-0.2612,10.73,19.21,-3.90
882,1206437629,0.0562,-0.8433,-0.2773,3.48,19.82,-3.17
883,1206442629,0.0923,-0.8359,-0.2808,-3.05,20.79,-2.62
884,1206447630,0.1245,-0.8281,-0.2871,-7.87,21.89,-2.26
885,1206452629,0.1411,-0.8237,-0.2715,-10.55,23.48,-2.13
886,1206457628,0.1401,-0.8276,-0.2617,-10.61,25.06,-2.07
887,1206462629,0.1118,-0.8369,-0.2578,-8.11,26.59,-2.20
888,1206467629,0.0732,-0.8667,-0.2397,-2.99,27.62,-2.20
889,1206472629,0.0293,-0.9126,-0.2363,3.78,28.66,-2.01
890,1206477628,-0.0088,-0.9624,-0.2402,11.40,29.33,-1.28
891,1206482629,-0.0400,-1.0010,-0.2422,18.84,29.51,-0.30
892,1206487629,-0.0576,-1.0303,-0.2412,25.00,29.39,0.67
893,1206492628,-0.0723,-1.0571,-0.2534,29.21,28.90,1.83
894,1206497629,-0.0742,-1.0742,-0.2798,31.65,28.17,2.87
895,1206502627,-0.0693,-1.0835,-0.3081,32.26,27.01,4.02
896,1206507629,-0.0449,-1.0835,-0.3188,31.04,25.49,5.18
897,1206512628,-0.0264,-1.0757,-0.3442,27.44,23.90,6.28
898,1206517630,-0.0020,-1.0669,-0.3584,22.01,22.20,7.38
899,1206522627,0.0239,-1.0669,-0.3755,15.06,20.79,8.54
900,1206527631,0.0371,-1.0703,-0.3882,7.01,19.21,9.63
901,1206532628,0.0566,-1.0698,-0.3843,-1.83,17.93,10.79
902,1206537627,0.0718,-1.0464,-0.3823,-10.98,16.89,11.77
903,1206542629,0.0884,-1.0469,-0.3638,-19.57,16.40,12.50
904,1206547627,0.0991,-1.0576,-0.3618,-25.98,16.28,13.35
905,1206552627,0.1230,-1.0688,-0.3457,-28.84,16.40,14.45
906,1206557629,0.1460,-1.0884,-0.3433,-27.32,16.95,15.98
907,1206562628,0.1479,-1.0991,-0.3491,-21.71,17.26,17.74
908,1206567629,0.1367,-1.1069,-0.3438,-12.56,17.80,19.63
909,1206572627,0.1235,-1.1143,-0.3442,-1.52,18.41,21.40
910,1206577629,0.1211,-1.1235,-0.3325,10.49,19.02,23.11
911,1206582628,0.1177,-1.1255,-0.3350,22.32,19.51,24.57
912,1206587627,0.1069,-1.1406,-0.3267,32.87,19.94,25.73
913,1206592627,0.0903,-1.1387,-0.3320,41.34,20.55,26.71
914,1206597629,0.0684,-1.1445,-0.3340,47.38,20.98,27.32
915,1206602627,0.0420,-1.1362,-0.3315,50.43,21.16,27.50
916,1206607627,0.0298,-1.1299,-0.3301,50.49,21.04,27.32
917,1206612629,0.0239,-1.1240,-0.3286,48.23,21.16,26.77
918,1206617629,0.0107,-1.1226,-0.3247,44.27,20.98,25.91
919,1206622628,0.0093,-1.1123,-0.3218,39.21,20.79,25.00
920,1206627627,0.0107,-1.1001,-0.3115,33.84,20.55,24.09
921,1206632627,0.0088,-1.0957,-0.3096,28.78,20.12,22.93
922,1206637631,0.0054,-1.0923,-0.3003,24.82,19.70,21.77
923,1206642627,0.0020,-1.0884,-0.3018,22.68,19.09,20.61
924,1206647628,-0.0039,-1.0830,-0.3032,22.50,18.11,19.33
925,1206652629,-0.0146,-1.0752,-0.3076,24.21,17.26,18.05
926,1206657628,-0.0029,-1.0635,-0.3047,27.56,16.28,16.77
927,1206662629,0.0107,-1.0566,-0.3057,31.83,15.18,15.55
928,1206667628,0.0298,-1.0361,-0.3086,36.65,13.78,14.33
929,1206672628,0.0381,-1.0132,-0.3159,40.91,12.56,12.99
930,1206677629,0.0483,-0.9834,-0.3091,43.90,11.16,11.83
931,1206682629,0.0557,-0.9556,-0.3027,45.67,10.00,10.49
932,1206687628,0.0693,-0.9297,-0.3013,46.28,8.72,9.33
933,1206692629,0.0708,-0.9028,-0.3066,45.79,7.68,8.11
934,1206697627,0.0596,-0.8740,-0.3208,44.70,6.28,7.07
935,1206702628,0.0557,-0.8418,-0.3149,42.93,5.06,6.28
936,1206707629,0.0669,-0.8296,-0.3159,40.37,3.84,5.43
937,1206712628,0.0859,-0.8213,-0.3037,36.95,2.80,5.00
938,1206717627,0.1001,-0.8208,-0.2915,32.68,1.83,4.94
939,1206722629,0.1128,-0.8311,-0.2866,27.07,1.04,5.24
940,1206727629,0.1108,-0.8394,-0.2808,20.24,0.24,5.73
941,1206732629,0.0869,-0.8350,-0.2637,12.20,-0.61,5.98
942,1206737628,0.0679,-0.8369,-0.2480,3.84,-1.28,5.85
943,1206742629,0.0669,-0.8462,-0.2358,-3.60,-1.77,5.73
944,1206747627,0.0737,-0.8467,-0.2324,-9.45,-2.32,5.37
945,1206752628,0.0850,-0.8472,-0.2144,-12.80,-2.68,5.00
946,1206757629,0.0913,-0.8516,-0.2100,-13.72,-2.99,4.45
947,1206762629,0.0913,-0.8472,-0.1982,-12.50,-3.11,3.84
948,1206767629,0.0879,-0.8418,-0.1885,-9.33,-3.23,2.93
949,1206772629,0.0713,-0.8389,-0.1890,-4.63,-3.48,2.01
950,1206777627,0.0479,-0.8369,-0.1831,0.79,-3.54,0.91
951,1206782629,0.0322,-0.8369,-0.1904,6.77,-3.66,-0.06
952,1206787627,0.0117,-0.8350,-0.1851,12.26,-3.78,-1.34
953,1206792630,-0.0083,-0.8379,-0.1870,16.59,-4.09,-2.62
954,1206797629,-0.0249,-0.8433,-0.1807,19.21,-4.15,-3.84
955,1206802628,-0.0337,-0.8408,-0.1777,20.06,-4.27,-5.18
956,1206807627,-0.0522,-0.8394,-0.1709,19.02,-4.27,-6.52
957,1206812628,-0.0664,-0.8447,-0.1587,16.40,-4.09,-7.80
958,1206817627,-0.0703,-0.8555,-0.1470,12.93,-3.84,-8.96
959,1206822629,-0.0674,-0.8638,-0.1484,9.15,-3.54,-9.76
960,1206827628,-0.0669,-0.8633,-0.1445,5.61,-3.17,-10.37
961,1206832631,-0.0776,-0.8623,-0.1392,2.50,-2.50,-10.85
962,1206837627,-0.0737,-0.8643,-0.1309,0.61,-1.77,-10.98
963,1206842631,-0.0532,-0.8613,-0.1348,0.18,-0.91,-10.91
964,1206847627,-0.0356,-0.8623,-0.1357,1.34,-0.12,-10.61
965,1206852629,-0.0259,-0.8584,-0.1401,3.90,0.79,-9.82
966,1206857628,-0.0200,-0.8545,-0.1479,7.50,1.65,-9.02
967,1206862629,-0.0151,-0.8511,-0.1489,11.89,2.50,-7.87
968,1206867627,-0.0117,-0.8530,-0.1572,16.65,3.29,-6.71
969,1206872627,-0.0068,-0.8516,-0.1606,21.59,4.09,-5.30
970,1206877631,-0.0044,-0.8501,-0.1699,26.59,4.63,-3.78
971,1206882629,0.0005,-0.8516,-0.1685,31.34,5.12,-2.32
972,1206887628,-0.0112,-0.8584,-0.1782,35.67,5.49,-0.91
973,1206892627,-0.0044,-0.8770,-0.1743,39.33,5.73,0.49
974,1206897627,0.0078,-0.8999,-0.1719,42.26,5.79,1.83
975,1206903088,-0.0063,-0.9082,-0.1743,44.33,5.61,2.68
976,1206907629,-0.0288,-0.9214,-0.1704,45.37,5.18,3.35
977,1206912627,-0.0376,-0.9355,-0.1587,45.24,4.63,3.72
978,1206917627,-0.0415,-0.9434,-0.1519,44.70,3.84,3.72
979,1206922627,-0.0391,-0.9526,-0.1450,43.66,3.05,3.41
980,1206927631,-0.0332,-0.9600,-0.1436,42.99,2.32,3.11
981,1206932800,-0.0298,-0.9678,-0.1353,42.62,1.40,2.87
982,1206937628,-0.0269,-0.9717,-0.1318,42.93,0.49,2.50
983,1206942631,-0.0269,-0.9751,-0.1274,43.41,-0.30,2.20
984,1206947627,-0.0195,-0.9775,-0.1255,44.21,-1.10,1.95
985,1206952629,-0.0146,-0.9790,-0.1226,45.30,-1.71,1.71
986,1206957628,-0.0103,-0.9785,-0.1270,46.28,-2.56,1.77
987,1206962629,-0.0103,-0.9829,-0.1309,47.13,-3.41,1.71
988,1206967627,-0.0078,-0.9829,-0.1318,47.26,-4.15,1.83
989,1206972629,-0.0161,-0.9717,-0.1362,46.34,-4.88,1.95
990,1206977628,-0.0303,-0.9707,-0.1357,44.39,-5.79,2.01
991,1206982629,-0.0317,-0.9595,-0.1357,41.22,-6.52,2.01
992,1206987627,-0.0322,-0.9468,-0.1367,37.20,-7.07,1.83
993,1206992634,-0.0264,-0.9390,-0.1299,33.05,-7.56,1.59
994,1206997627,-0.0166,-0.9341,-0.1299,29.39,-8.29,1.46
995,1207002631,-0.0020,-0.9302,-0.1333,26.77,-8.78,1.40
996,1207007627,0.0112,-0.9136,-0.1357,25.73,-9.33,1.40
997,1207012631,0.0156,-0.9072,-0.1265,26.34,-9.88,1.28
998,1207017628,0.0249,-0.9009,-0.1255,28.41,-10.43,1.16
999,1207022629,0.0361,-0.8950,-0.1260,31.52,-11.04,1.10
1000,1207027627,0.0498,-0.8931,-0.1250,35.37,-11.46,1.04
1001,1207032629,0.0645,-0.8921,-0.1182,39.15,-11.71,1.04
1002,1207037628,0.0845,-0.8945,-0.1099,42.62,-12.01,0.98
1003,1207042631,0.0894,-0.8965,-0.1123,45.61,-12.44,0.85
1004,1207047627,0.0806,-0.9043,-0.1182,47.87,-12.68,0.73
1005,1207052632,0.0718,-0.9121,-0.1147,49.02,-13.41,0.49
1006,1207057627,0.0732,-0.9175,-0.1211,48.96,-14.27,0.24
1007,1207062631,0.0640,-0.9224,-0.1187,47.80,-15.18,-0.12
1008,1207067628,0.0630,-0.9165,-0.1152,45.61,-16.04,-0.55
1009,1207072632,0.0635,-0.9224,-0.1167,42.56,-17.13,-1.10
1010,1207077630,0.0591,-0.9155,-0.1045,38.78,-18.11,-1.65
1011,1207082627,0.0469,-0.9087,-0.1025,34.94,-18.96,-2.32
1012,1207087627,0.0439,-0.9019,-0.0981,31.22,-20.12,-2.99
1013,1207092627,0.0566,-0.8970,-0.1030,28.60,-20.91,-3.66
1014,1207097631,0.0664,-0.8911,-0.0981,27.01,-21.77,-4.27
1015,1207102629,0.0840,-0.8809,-0.1045,26.59,-22.62,-4.88
1016,1207107628,0.0957,-0.8926,-0.0854,27.01,-23.41,-5.43
1017,1207112629,0.1089,-0.9102,-0.0791,28.05,-24.09,-5.73
1018,1207117627,0.1021,-0.9253,-0.0698,29.45,-24.45,-5.98
1019,1207122629,0.0850,-0.9438,-0.0659,31.22,-24.63,-6.22
1020,1207127629,0.0825,-0.9697,-0.0454,33.17,-24.82,-6.71
1021,1207132741,0.0986,-0.9956,-0.0342,35.73,-24.88,-7.01
1022,1207137629,0.1143,-1.0210,-0.0312,38.90,-24.88,-7.38
1023,1207142627,0.1060,-1.0449,-0.0195,43.17,-25.24,-8.05
1024,1207147629,0.0894,-1.0688,-0.0088,46.04,-25.37,-8.54
1025,1207152628,0.0718,-1.0879,0.0015,49.39,-25.79,-9.39
1026,1207157627,0.0596,-1.1016,0.0093,52.38,-26.22,-10.43
1027,1207162627,0.0513,-1.1216,0.0220,54.82,-26.89,-11.46
1028,1207167627,0.0425,-1.1367,0.0264,56.40,-27.68,-12.68
1029,1207172629,0.0269,-1.1411,0.0352,56.77,-28.60,-14.09
1030,1207177628,0.0059,-1.1489,0.0366,55.85,-29.57,-15.61
1031,1207182629,-0.0190,-1.1577,0.0444,53.54,-30.85,-17.20
1032,1207187628,-0.0474,-1.1660,0.0415,50.00,-32.13,-18.96
1033,1207192627,-0.0728,-1.1685,0.0464,45.49,-33.54,-20.61
1034,1207197630,-0.0923,-1.1782,0.0498,40.24,-34.94,-22.20
1035,1207202631,-0.1030,-1.1865,0.0488,34.94,-36.28,-23.54
1036,1207207628,-0.0972,-1.2021,0.0391,30.12,-37.68,-24.57
1037,1207212629,-0.0835,-1.2100,0.0391,25.98,-38.72,-25.18
1038,1207217629,-0.0566,-1.2085,0.0327,22.74,-39.76,-25.24
1039,1207222629,-0.0171,-1.2124,0.0356,20.55,-40.49,-24.76
1040,1207227627,0.0317,-1.2153,0.0317,19.33,-40.98,-23.84
1041,1207232627,0.0684,-1.2173,0.0269,18.66,-41.10,-22.68
1042,1207237627,0.0938,-1.2124,0.0322,18.54,-40.85,-21.34
1043,1207242655,0.1147,-1.2119,0.0479,18.48,-40.61,-20.06
1044,1207247631,0.1377,-1.2109,0.0522,18.54,-40.06,-18.78
1045,1207252628,0.1587,-1.2144,0.0586,18.78,-39.33,-17.56
1046,1207257629,0.1606,-1.2095,0.0596,19.21,-38.35,-16.59
