# skilleye imu stream v1
# device=xiao_esp32c6 imu=mpu6050 addr=0x68
# rate_hz=200 accel_range_g=16 gyro_range_dps=2000 dlpf_hz=94
# units: accel in g, gyro in deg/s, t_us in microseconds since boot (monotonic)
# no shared clock with the camera -- tap the racket once before each take
# so both recordings share a spike to align on
seq,t_us,ax,ay,az,gx,gy,gz
0,1220347629,0.6655,0.8164,0.0430,43.17,-15.24,-9.63
1,1220352675,0.6772,0.7866,-0.0112,44.09,-16.83,-9.57
2,1220357629,0.6709,0.7954,-0.0044,45.85,-18.41,-9.51
3,1220362627,0.6543,0.8008,-0.0352,47.26,-19.70,-9.45
4,1220367628,0.6465,0.8027,-0.0688,47.87,-20.91,-9.33
5,1220372629,0.6362,0.8105,-0.0664,47.32,-21.89,-9.02
6,1220377631,0.6270,0.8149,-0.0898,45.73,-22.80,-8.78
7,1220382631,0.6440,0.8267,-0.1108,43.84,-23.54,-8.48
8,1220387628,0.6572,0.8423,-0.1138,41.95,-24.02,-8.41
9,1220392627,0.6724,0.8540,-0.1250,39.88,-24.45,-8.35
10,1220397627,0.6826,0.8633,-0.1470,37.80,-24.63,-8.23
11,1220402627,0.6982,0.8809,-0.1626,35.91,-24.82,-8.11
12,1220407631,0.7085,0.8945,-0.1812,33.72,-24.57,-7.80
13,1220412628,0.7056,0.9009,-0.2197,32.93,-24.27,-7.50
14,1220417631,0.7051,0.9214,-0.2397,32.20,-23.54,-6.65
15,1220422629,0.7070,0.9204,-0.2427,31.65,-23.05,-6.04
16,1220427628,0.6958,0.9360,-0.2603,30.61,-21.95,-5.12
17,1220432629,0.6504,0.9512,-0.2734,29.27,-20.85,-4.02
18,1220437627,0.6841,0.9580,-0.2988,27.74,-19.63,-2.62
19,1220442629,0.6646,0.9946,-0.3184,26.40,-18.11,-1.04
20,1220447628,0.6416,1.0229,-0.2896,24.21,-16.65,0.61
21,1220452631,0.6372,1.0049,-0.2842,20.06,-14.63,2.62
22,1220457627,0.6328,0.9731,-0.3110,16.71,-13.35,3.96
23,1220462627,0.6133,0.9600,-0.3008,12.07,-11.77,5.55
24,1220467629,0.5908,0.9585,-0.3125,6.65,-9.82,7.62
25,1220472628,0.5825,0.9521,-0.3188,3.48,-8.54,9.02
26,1220477724,0.5825,0.9302,-0.3105,0.49,-6.71,11.16
27,1220482631,0.5771,0.9209,-0.3047,-0.49,-5.00,12.93
28,1220487627,0.5825,0.9121,-0.2949,-0.24,-3.72,14.27
29,1220492629,0.5684,0.9014,-0.2822,1.10,-2.20,16.28
30,1220497628,0.5610,0.8921,-0.2803,1.95,-1.34,17.38
31,1220502629,0.5596,0.8882,-0.2759,2.87,-0.06,19.33
32,1220507627,0.5620,0.8779,-0.2773,2.99,0.55,20.37
33,1220512629,0.5649,0.8652,-0.2661,2.38,1.46,21.71
34,1220517628,0.5669,0.8550,-0.2642,1.52,1.95,22.50
35,1220522629,0.5718,0.8325,-0.2632,-0.85,2.50,23.48
36,1220527627,0.5811,0.8188,-0.2656,-2.50,2.74,23.84
37,1220532627,0.5879,0.7974,-0.2695,-4.70,2.93,24.21
38,1220537631,0.6016,0.7769,-0.2642,-6.77,2.99,24.57
39,1220542629,0.6060,0.7593,-0.2695,-7.74,3.11,24.63
40,1220547628,0.6084,0.7476,-0.2764,-7.80,3.17,24.76
41,1220552629,0.6050,0.7314,-0.2778,-6.77,3.29,24.76
42,1220557627,0.6040,0.7085,-0.2861,-5.30,3.41,24.82
43,1220562708,0.6035,0.6890,-0.2886,-1.52,3.66,24.94
44,1220567628,0.6050,0.6694,-0.2944,2.13,3.66,25.06
45,1220572629,0.6094,0.6396,-0.2920,8.66,3.72,25.37
46,1220577627,0.6191,0.6294,-0.2974,13.60,3.60,25.49
47,1220582631,0.6455,0.6089,-0.2896,20.91,3.66,25.43
48,1220587628,0.6597,0.5977,-0.2944,25.43,3.60,25.12
49,1220592627,0.6558,0.5645,-0.2915,30.37,3.72,24.09
50,1220597631,0.6431,0.5410,-0.2896,32.07,3.84,23.35
51,1220602732,0.6411,0.5205,-0.2959,31.59,3.90,22.26
52,1220607627,0.6387,0.5000,-0.2812,29.88,3.96,21.28
53,1220612627,0.6377,0.4829,-0.2744,26.71,4.15,19.88
54,1220617627,0.6387,0.4648,-0.2720,22.93,4.09,18.23
55,1220622631,0.6323,0.4355,-0.2593,17.99,4.39,16.10
56,1220627628,0.6309,0.4136,-0.2471,15.12,4.39,14.63
57,1220632627,0.6284,0.3921,-0.2393,12.20,4.63,12.56
58,1220637627,0.6313,0.3711,-0.2178,10.49,4.70,10.49
59,1220642629,0.6250,0.3447,-0.2119,10.12,4.51,7.74
60,1220647628,0.6201,0.3208,-0.1968,10.98,4.45,5.85
61,1220652630,0.6348,0.2979,-0.1777,14.02,4.02,2.93
62,1220657627,0.6626,0.2988,-0.1660,17.68,3.48,0.49
63,1220662631,0.6904,0.3154,-0.1270,21.59,2.93,-2.13
64,1220667628,0.7319,0.3779,-0.0825,24.09,2.01,-4.51
65,1220672629,0.7905,0.4814,-0.0293,23.78,0.91,-6.22
66,1220677627,0.8101,0.5713,-0.0151,20.73,-0.43,-7.01
67,1220682627,0.7974,0.6226,0.0127,14.39,-2.50,-7.26
68,1220687629,0.7778,0.6118,0.0195,9.57,-3.90,-7.50
69,1220692629,0.7563,0.5820,-0.0103,6.89,-5.06,-7.56
70,1220697739,0.7451,0.5557,-0.0493,6.10,-5.85,-7.68
71,1220702631,0.7407,0.5425,-0.0571,5.98,-6.46,-7.87
72,1220707627,0.7427,0.5454,-0.0791,5.98,-6.89,-7.99
73,1220712629,0.7544,0.5713,-0.1172,6.22,-7.07,-7.68
74,1220717628,0.7700,0.6021,-0.1367,7.13,-7.13,-6.89
75,1220722627,0.7588,0.6079,-0.1533,8.96,-7.32,-5.61
76,1220727629,0.7368,0.5640,-0.1611,11.34,-7.20,-4.51
77,1220732629,0.7227,0.4971,-0.1646,13.66,-7.01,-3.96
78,1220737628,0.7188,0.4341,-0.1572,15.61,-6.77,-3.96
79,1220742629,0.7227,0.3994,-0.1611,17.44,-6.83,-4.39
80,1220747627,0.7231,0.3906,-0.1704,19.63,-6.95,-5.24
81,1220752631,0.7397,0.3862,-0.1797,22.68,-6.71,-6.40
82,1220757628,0.7646,0.3955,-0.1924,26.16,-6.65,-7.74
83,1220762631,0.7681,0.4004,-0.1919,29.39,-6.22,-9.15
84,1220767627,0.7686,0.3994,-0.1919,31.04,-6.04,-10.61
85,1220772629,0.7578,0.4146,-0.1860,30.49,-5.98,-12.13
86,1220777628,0.7563,0.5215,-0.1499,27.07,-5.91,-13.48
87,1220783178,0.7441,0.6060,-0.1440,19.21,-6.10,-13.54
88,1220787630,0.7070,0.5503,-0.1973,12.07,-6.16,-13.48
89,1220792628,0.6855,0.5449,-0.2373,8.84,-5.55,-13.60
90,1220797629,0.6646,0.5381,-0.2832,9.21,-4.39,-13.66
91,1220802628,0.6636,0.5161,-0.3442,10.55,-3.05,-13.54
92,1220807627,0.6582,0.5190,-0.3477,11.34,-1.71,-13.72
93,1220813257,0.6523,0.5444,-0.3306,10.49,0.12,-13.48
94,1220817630,0.6279,0.5596,-0.3271,6.89,1.59,-13.23
95,1220822628,0.6221,0.5669,-0.3345,3.23,2.68,-13.11
96,1220827629,0.6289,0.5581,-0.3560,-0.73,4.45,-12.80
97,1220832627,0.6328,0.5527,-0.3931,-2.50,6.28,-12.74
98,1220837627,0.6299,0.5229,-0.4106,-3.96,7.80,-12.87
99,1220842631,0.6421,0.4990,-0.4062,-5.49,8.90,-13.11
100,1220847629,0.6514,0.4912,-0.3945,-6.40,10.06,-13.29
101,1220852631,0.6509,0.4902,-0.3892,-6.40,11.04,-13.48
102,1220857628,0.6543,0.4941,-0.3779,-5.85,11.77,-13.60
103,1220862627,0.6567,0.5059,-0.3867,-3.96,12.56,-13.72
104,1220867627,0.6582,0.5068,-0.3447,-1.89,13.11,-13.84
105,1220872627,0.6680,0.5322,-0.2886,-0.49,13.35,-14.15
106,1220877627,0.6748,0.5586,-0.2734,-0.43,13.17,-14.39
107,1220882631,0.7368,0.5371,-0.3242,-0.55,12.80,-15.24
108,1220887627,0.7090,0.5273,-0.2593,1.40,12.44,-16.04
109,1220892627,0.6880,0.5801,-0.1592,0.30,12.32,-16.89
110,1220897627,0.7202,0.6665,-0.2402,-0.61,11.52,-18.11
111,1220902629,0.7646,0.7178,-0.2100,-1.10,10.85,-18.78
112,1220907627,0.7544,0.7271,-0.1592,-3.84,10.24,-19.02
113,1220912630,0.7310,0.7285,-0.1763,-6.52,9.76,-19.02
114,1220917627,0.7109,0.7168,-0.2266,-6.95,9.39,-18.66
115,1220922631,0.6982,0.7031,-0.2363,-6.52,9.15,-18.05
116,1220927627,0.6885,0.7065,-0.2485,-6.04,8.96,-17.50
117,1220932627,0.6826,0.7031,-0.2695,-5.24,8.54,-16.71
118,1220937627,0.6719,0.6816,-0.2710,-4.70,7.93,-15.73
119,1220942667,0.6660,0.6685,-0.2632,-4.70,7.26,-14.76
120,1220947627,0.6519,0.6665,-0.2656,-4.57,6.59,-13.78
121,1220952627,0.6489,0.6689,-0.2603,-4.45,5.55,-12.87
122,1220957627,0.6509,0.6743,-0.2578,-3.84,4.51,-12.07
123,1220962627,0.6523,0.6895,-0.2437,-2.80,3.17,-11.28
124,1220967627,0.6670,0.7021,-0.2241,-1.22,1.95,-10.49
125,1220972627,0.6733,0.7207,-0.2173,0.37,0.67,-9.76
126,1220977627,0.6895,0.7349,-0.2031,2.13,-0.67,-9.27
127,1220982627,0.6826,0.7573,-0.2256,4.70,-1.83,-9.02
128,1220987627,0.7227,0.7891,-0.1519,7.50,-3.11,-9.02
129,1220992630,0.7397,0.8159,-0.1943,10.91,-4.39,-9.94
130,1220997629,0.7583,0.7925,-0.1865,13.35,-5.79,-11.16
131,1221002627,0.7773,0.7920,-0.1592,15.49,-6.83,-12.20
132,1221007627,0.7661,0.7920,-0.1548,17.68,-7.87,-13.35
133,1221012707,0.7441,0.7939,-0.1738,19.82,-8.66,-14.70
134,1221017629,0.7217,0.7896,-0.1855,21.95,-9.70,-15.73
135,1221022982,0.6997,0.7856,-0.1768,24.09,-10.55,-16.71
136,1221027630,0.6860,0.7886,-0.1753,26.10,-11.65,-17.38
137,1221032761,0.6787,0.7983,-0.1787,27.80,-12.38,-17.74
138,1221037629,0.6753,0.8037,-0.1758,29.09,-13.11,-17.99
139,1221042627,0.6646,0.8047,-0.1821,30.79,-13.84,-18.11
140,1221047628,0.6602,0.8052,-0.1953,32.99,-14.45,-17.87
141,1221052628,0.6489,0.7905,-0.1963,35.24,-15.00,-17.62
142,1221057629,0.6401,0.7720,-0.1943,37.50,-15.61,-17.07
143,1221062630,0.6353,0.7603,-0.1958,39.45,-16.10,-16.34
144,1221067628,0.6274,0.7549,-0.1943,41.22,-16.34,-15.49
145,1221072629,0.6152,0.7407,-0.2139,43.05,-16.71,-14.51
146,1221077664,0.6001,0.7212,-0.2114,44.39,-17.32,-13.35
147,1221082629,0.5879,0.7065,-0.2383,45.55,-17.74,-12.13
148,1221087629,0.5840,0.7031,-0.2563,46.83,-18.17,-10.67
149,1221092627,0.5854,0.7075,-0.2720,48.11,-18.60,-9.02
150,1221097627,0.5879,0.7012,-0.2910,49.33,-18.96,-7.44
151,1221102629,0.5894,0.7017,-0.3169,49.94,-19.27,-5.85
152,1221107627,0.5869,0.6880,-0.3315,49.82,-19.63,-4.51
153,1221112629,0.5825,0.6655,-0.3384,49.09,-19.82,-3.05
154,1221117628,0.5957,0.6553,-0.3525,47.99,-20.12,-1.71
155,1221122629,0.6123,0.6416,-0.3481,46.46,-20.37,-0.43
156,1221127673,0.6191,0.6182,-0.3535,44.94,-20.37,0.85
157,1221132629,0.6240,0.5996,-0.3589,43.60,-20.18,2.26
158,1221137629,0.6260,0.5894,-0.3613,42.13,-19.63,3.90
159,1221142629,0.6206,0.5894,-0.3677,41.04,-18.84,5.73
160,1221147629,0.6279,0.5874,-0.3804,39.76,-17.93,7.56
161,1221152629,0.6353,0.5938,-0.3999,38.29,-17.26,9.33
162,1221157628,0.6543,0.6001,-0.4121,36.46,-16.52,11.10
163,1221162630,0.6729,0.6060,-0.4209,34.57,-15.85,12.68
164,1221167627,0.6841,0.6157,-0.4263,32.62,-15.37,14.21
165,1221172629,0.6831,0.6226,-0.4434,30.67,-14.76,15.61
166,1221177628,0.6934,0.6250,-0.4141,28.84,-14.33,16.89
167,1221182629,0.6899,0.6260,-0.4160,26.59,-14.02,18.05
168,1221187629,0.6890,0.6289,-0.4102,24.94,-13.90,19.09
169,1221192629,0.6909,0.6270,-0.3994,23.84,-13.84,20.00
170,1221197632,0.6904,0.6172,-0.3799,23.48,-13.60,20.91
171,1221202628,0.6978,0.6079,-0.3652,23.54,-13.29,21.77
172,1221207627,0.6973,0.5977,-0.3608,24.15,-13.05,22.62
173,1221212629,0.6934,0.5874,-0.3452,24.70,-12.74,23.17
174,1221217627,0.6704,0.5801,-0.3638,25.18,-12.50,23.66
175,1221222627,0.6616,0.5571,-0.3604,25.55,-12.44,24.21
176,1221228166,0.6851,0.5391,-0.3594,26.04,-12.20,24.94
177,1221232630,0.7070,0.5361,-0.3833,26.04,-12.07,25.43
178,1221237629,0.7266,0.5391,-0.4004,25.67,-11.89,25.79
179,1221242629,0.7505,0.5352,-0.4165,24.94,-12.20,25.98
180,1221247629,0.7627,0.5215,-0.4272,23.90,-12.50,26.10
181,1221252628,0.7803,0.5103,-0.4219,23.05,-12.80,25.98
182,1221257629,0.7935,0.5083,-0.4146,22.44,-13.23,25.79
183,1221262628,0.8047,0.5098,-0.4097,21.95,-13.48,25.30
184,1221267629,0.8115,0.5103,-0.3989,21.83,-13.78,24.82
185,1221272629,0.8062,0.5127,-0.4014,21.77,-14.21,24.15
186,1221277629,0.8101,0.5264,-0.4209,21.71,-14.63,23.05
187,1221282627,0.8252,0.5249,-0.4087,21.71,-15.30,22.07
188,1221287629,0.8242,0.5176,-0.4072,21.77,-15.85,20.98
189,1221292628,0.8130,0.5039,-0.4028,21.89,-16.40,20.18
190,1221297627,0.8013,0.5059,-0.4092,22.26,-16.77,19.57
191,1221302974,0.8154,0.5322,-0.4321,22.38,-17.20,18.72
192,1221307629,0.8569,0.5503,-0.4360,22.07,-17.62,17.74
193,1221312629,0.8794,0.5474,-0.4297,20.67,-17.74,16.65
194,1221317629,0.8574,0.5430,-0.4414,17.99,-17.32,15.49
195,1221322629,0.8174,0.5488,-0.4673,14.27,-16.65,14.70
196,1221327629,0.7832,0.5454,-0.5049,9.51,-15.73,14.21
197,1221332629,0.7593,0.5532,-0.5410,4.09,-14.70,13.84
198,1221337628,0.7485,0.5664,-0.5757,-1.65,-13.41,13.66
199,1221342631,0.7261,0.5806,-0.5869,-7.56,-12.13,13.48
200,1221347628,0.7104,0.5752,-0.5767,-13.41,-10.43,13.48
201,1221352629,0.7017,0.5776,-0.5615,-19.33,-8.41,13.54
202,1221357627,0.6973,0.5913,-0.5576,-24.39,-5.91,13.48
203,1221362629,0.7051,0.6040,-0.5576,-28.60,-3.54,13.29
204,1221367629,0.7119,0.6128,-0.5361,-32.32,-1.10,13.05
205,1221372629,0.7109,0.6211,-0.5083,-36.10,1.59,12.62
206,1221377630,0.6719,0.6499,-0.4814,-40.67,4.21,12.07
207,1221382630,0.6562,0.6602,-0.4746,-46.95,6.59,11.34
208,1221387627,0.5918,0.6406,-0.4585,-56.04,8.35,10.55
209,1221392627,0.6221,0.6685,-0.3540,-67.56,10.43,9.82
210,1221397631,0.6255,0.6963,-0.3853,-77.38,12.56,9.09
211,1221402627,0.6187,0.7163,-0.4248,-84.70,14.33,8.60
212,1221407630,0.6143,0.7212,-0.3760,-89.51,16.10,8.11
213,1221412628,0.6167,0.7173,-0.3511,-92.26,18.17,7.93
214,1221417629,0.6221,0.7388,-0.3721,-92.93,19.94,7.93
215,1221422628,0.6187,0.7578,-0.3726,-91.04,21.52,8.29
216,1221427629,0.6294,0.7788,-0.3418,-86.28,22.93,8.90
217,1221432627,0.6528,0.8071,-0.3594,-78.72,24.51,9.82
218,1221437629,0.6504,0.8159,-0.3711,-69.15,26.04,10.79
219,1221442627,0.6450,0.8320,-0.3687,-58.11,27.50,12.20
220,1221447627,0.6665,0.8359,-0.3691,-46.52,28.78,13.84
221,1221452627,0.6924,0.8486,-0.3770,-35.06,29.94,15.61
222,1221457629,0.7085,0.8604,-0.3716,-24.57,31.04,17.50
223,1221462629,0.7051,0.8643,-0.3726,-15.55,31.83,19.39
224,1221467628,0.7188,0.8696,-0.3652,-8.90,32.68,21.46
225,1221472630,0.7402,0.8896,-0.3652,-5.06,33.11,23.35
226,1221477627,0.7583,0.8931,-0.3535,-4.27,33.78,25.24
227,1221482629,0.7637,0.8955,-0.3521,-7.13,34.27,27.13
228,1221487627,0.7690,0.9023,-0.3618,-13.35,34.45,29.15
229,1221492627,0.7793,0.9141,-0.3564,-22.20,34.76,31.28
230,1221497627,0.7749,0.9336,-0.3506,-32.56,35.12,33.66
231,1221502659,0.7676,0.9473,-0.3647,-43.66,35.37,36.22
232,1221507627,0.7583,0.9595,-0.3735,-54.27,35.73,39.27
233,1221512627,0.7627,0.9795,-0.3770,-63.05,35.98,42.50
234,1221517627,0.7769,1.0093,-0.3765,-69.27,36.28,45.98
235,1221522627,0.7822,1.0283,-0.3745,-72.26,36.71,49.51
236,1221527627,0.7729,1.0469,-0.3755,-71.65,37.56,53.35
237,1221532627,0.7710,1.0503,-0.3770,-68.11,38.11,57.62
238,1221537627,0.7871,1.0635,-0.3687,-61.46,38.60,61.77
239,1221542627,0.8052,1.0762,-0.3491,-52.68,39.39,66.22
240,1221547627,0.8027,1.0757,-0.3364,-42.87,40.43,70.43
241,1221552820,0.8013,1.0703,-0.3394,-34.15,41.34,74.63
242,1221557629,0.8140,1.0615,-0.3359,-27.32,42.32,78.84
243,1221562629,0.8354,1.0645,-0.3208,-22.62,43.05,83.05
244,1221567629,0.8496,1.0742,-0.3091,-20.30,43.90,87.13
245,1221572628,0.8394,1.0674,-0.2979,-21.16,44.82,90.79
246,1221577629,0.8267,1.0459,-0.2930,-25.73,45.79,94.63
247,1221582628,0.8232,1.0229,-0.2974,-33.48,46.40,98.48
248,1221587629,0.8408,1.0078,-0.2861,-42.80,46.83,102.44
249,1221592629,0.7847,1.0029,-0.2764,-51.77,47.44,106.40
250,1221597629,0.7510,0.9839,-0.2676,-59.39,48.05,110.61
251,1221602629,0.7471,0.9507,-0.2588,-66.04,48.41,114.70
252,1221607629,0.7485,0.9229,-0.2598,-70.85,48.35,119.21
253,1221612628,0.7393,0.8896,-0.2319,-73.41,48.29,123.54
254,1221617629,0.7285,0.8599,-0.2144,-73.90,48.05,127.74
255,1221622628,0.7163,0.8159,-0.2007,-72.93,47.74,131.89
256,1221627627,0.7139,0.7700,-0.1870,-70.98,47.01,135.85
257,1221632629,0.7251,0.7393,-0.1802,-68.60,45.98,139.51
258,1221637629,0.7280,0.6904,-0.1562,-65.73,44.88,142.74
259,1221642631,0.7280,0.6387,-0.1548,-62.44,43.72,145.73
260,1221647628,0.7310,0.5791,-0.1475,-59.15,42.32,148.41
261,1221652629,0.7339,0.5244,-0.1357,-55.98,41.10,150.55
262,1221657627,0.7383,0.4780,-0.1455,-53.17,39.63,152.26
263,1221662629,0.7241,0.4126,-0.1504,-51.04,38.11,153.29
264,1221667629,0.7012,0.3369,-0.1597,-49.76,36.89,153.84
265,1221672629,0.6108,0.2607,-0.1616,-49.15,36.16,154.02
266,1221677629,0.5767,0.1846,-0.1689,-49.21,35.67,153.72
267,1221682628,0.5703,0.0981,-0.1694,-49.88,35.06,152.56
268,1221687629,0.5479,0.0132,-0.1641,-50.49,34.63,150.85
269,1221692627,0.5176,-0.0742,-0.1519,-50.18,34.27,148.60
270,1221697629,0.5093,-0.1611,-0.1548,-48.72,33.78,145.55
271,1221702629,0.5225,-0.2373,-0.1406,-46.59,33.29,141.83
272,1221707629,0.5166,-0.3184,-0.1279,-43.78,32.68,137.32
273,1221712627,0.5024,-0.4077,-0.1206,-40.67,31.89,131.95
274,1221717627,0.4854,-0.4922,-0.1133,-36.65,30.91,125.91
275,1221722627,0.4536,-0.5796,-0.0938,-31.10,29.88,119.33
276,1221727629,0.4272,-0.6597,-0.0679,-23.90,28.78,112.01
277,1221732627,0.4175,-0.7451,-0.0537,-15.00,27.68,104.02
278,1221737627,0.4014,-0.8198,-0.0210,-4.82,26.40,95.12
279,1221742629,0.4038,-0.8862,0.0186,5.73,25.12,85.18
280,1221747629,0.4224,-0.9312,0.0391,15.98,23.72,74.27
281,1221752629,0.4272,-0.9873,0.0732,24.70,22.20,61.95
282,1221757628,0.4048,-1.0386,0.1108,30.85,20.67,48.72
283,1221762627,0.3838,-1.0938,0.1377,33.29,18.96,34.51
284,1221767629,0.3823,-1.1431,0.1626,31.10,17.01,19.51
285,1221772628,0.3872,-1.1753,0.1899,24.15,14.88,3.48
286,1221777629,0.3867,-1.2036,0.2256,13.23,12.56,-13.05
287,1221782628,0.3955,-1.2266,0.2593,-0.37,10.06,-30.24
288,1221787631,0.3984,-1.2407,0.2817,-15.12,7.32,-47.93
289,1221792627,0.4053,-1.2407,0.3130,-29.15,4.51,-65.91
290,1221797627,0.4146,-1.2388,0.3418,-41.46,1.83,-84.02
291,1221802629,0.4243,-1.2339,0.3521,-50.98,-0.98,-102.32
292,1221807631,0.4668,-1.2119,0.3413,-57.20,-3.84,-120.43
293,1221812629,0.5024,-1.1670,0.3071,-58.35,-6.89,-138.23
294,1221817628,0.4951,-1.1191,0.2812,-52.13,-9.94,-155.61
295,1221822629,0.4458,-1.0532,0.2290,-36.95,-12.62,-171.65
296,1221827627,0.4341,-0.9365,0.1606,-12.20,-15.18,-186.46
297,1221832627,0.4712,-0.7822,0.0933,20.37,-17.56,-200.37
298,1221837627,0.4604,-0.6436,0.0244,56.34,-19.88,-213.11
299,1221842629,0.3955,-0.5361,-0.0239,91.10,-21.59,-224.33
300,1221847627,0.3364,-0.4229,-0.0864,120.85,-22.93,-233.84
301,1221852627,0.2954,-0.2920,-0.1533,144.09,-24.15,-241.89
302,1221857630,0.2612,-0.1724,-0.1987,160.06,-25.24,-248.84
303,1221862627,0.2227,-0.0459,-0.2500,168.96,-25.91,-254.57
304,1221867629,0.1978,0.0820,-0.3042,170.91,-26.34,-259.51
305,1221872629,0.2329,0.2295,-0.3652,166.34,-26.77,-263.78
306,1221877629,0.2886,0.3755,-0.4014,156.28,-26.40,-267.62
307,1221882629,0.2861,0.5073,-0.4390,141.10,-25.24,-270.49
308,1221887627,0.2808,0.6533,-0.5244,121.34,-22.99,-272.20
309,1221892629,0.2949,0.8091,-0.6084,98.29,-19.76,-272.56
310,1221897627,1.7256,11.7158,-0.1313,69.51,-16.46,-247.50
311,1221902627,0.3975,11.5962,0.4985,-43.41,-23.48,-41.10
312,1221907627,1.0449,3.1982,0.1260,-84.33,-23.72,26.52
313,1221912627,1.2378,1.0449,-0.4565,-66.65,-13.29,41.89
314,1221917627,0.9771,0.9482,-0.9629,-47.74,-9.39,48.05
315,1221922627,0.9199,1.2065,-0.5791,-35.24,-6.40,51.95
316,1221927628,0.9995,1.4150,-0.3486,-23.90,-0.98,54.94
317,1221932627,1.1235,1.3159,-0.4365,-14.45,2.44,57.74
318,1221937627,1.1602,1.1772,-0.3857,-9.21,4.51,60.98
319,1221942627,1.1387,1.1699,-0.2041,-9.45,6.71,64.70
320,1221947628,1.1284,1.2349,-0.2002,-13.96,8.29,68.90
321,1221952631,1.1396,1.3091,-0.2407,-21.52,8.60,72.99
322,1221957629,1.1523,1.3237,-0.1333,-31.34,8.78,77.13
323,1221962629,1.1479,1.2725,-0.0957,-42.93,9.09,81.46
324,1221967628,1.1382,1.2217,-0.1768,-55.18,8.54,86.34
325,1221972629,1.1187,1.2036,-0.1519,-66.89,7.68,90.61
326,1221977627,1.0625,1.1934,-0.1211,-76.40,7.56,95.55
327,1221982630,1.0264,1.1626,-0.1465,-82.93,7.38,100.61
328,1221987628,0.9951,1.1182,-0.1733,-86.22,6.77,106.04
329,1221992629,0.9346,1.0610,-0.1484,-86.46,6.40,111.59
330,1221997627,0.8828,1.0171,-0.1646,-83.17,6.04,117.38
331,1222002627,0.8394,0.9536,-0.1748,-76.71,5.43,123.29
332,1222007627,0.8047,0.8945,-0.1650,-68.05,4.94,129.02
333,1222012629,0.7808,0.8145,-0.1606,-58.35,4.45,134.51
334,1222017628,0.7490,0.7202,-0.1587,-48.90,3.78,139.27
335,1222022627,0.7275,0.6226,-0.1489,-40.55,3.05,143.41
336,1222027629,0.6929,0.5137,-0.1406,-34.21,2.50,146.52
337,1222032627,0.6660,0.3994,-0.1411,-30.37,2.07,148.54
338,1222037629,0.6382,0.2749,-0.1362,-29.09,1.95,149.21
339,1222042627,0.6055,0.1470,-0.1406,-30.67,1.52,148.66
340,1222047660,0.5737,-0.0020,-0.1450,-34.39,1.04,147.07
341,1222052629,0.5464,-0.1382,-0.1499,-39.02,0.79,144.33
342,1222057628,0.5195,-0.2715,-0.1582,-43.84,0.24,140.06
343,1222062629,0.4966,-0.4150,-0.1572,-47.44,-0.18,134.51
344,1222067627,0.4600,-0.5635,-0.1631,-49.39,-0.55,127.50
345,1222072629,0.4238,-0.7178,-0.1670,-49.39,-0.85,119.21
346,1222077628,0.3877,-0.8706,-0.1567,-47.93,-0.61,109.39
347,1222082629,0.3599,-1.0327,-0.1567,-45.73,-0.12,98.05
348,1222087628,0.3311,-1.1953,-0.1562,-43.17,0.61,85.55
349,1222092629,0.3022,-1.3457,-0.1514,-40.37,1.46,70.91
350,1222097627,0.2935,-1.4868,-0.1304,-36.95,2.20,55.18
351,1222102627,0.2979,-1.6299,-0.1274,-33.05,2.68,37.74
352,1222107627,0.3218,-1.7583,-0.1147,-28.35,2.99,18.90
353,1222112629,0.3477,-1.8677,-0.1084,-22.07,3.05,-1.34
354,1222117628,0.3691,-1.9688,-0.0908,-12.68,2.62,-22.99
355,1222122631,0.3994,-2.0386,-0.0879,1.34,2.13,-45.67
356,1222127652,0.4429,-2.0825,-0.0649,20.85,1.22,-69.27
357,1222132627,0.4897,-2.0923,-0.0605,44.76,-0.06,-93.66
358,1222137627,0.5347,-2.0664,-0.0522,70.61,-1.71,-119.02
359,1222142629,0.5791,-2.0059,-0.0474,95.24,-3.78,-145.06
360,1222147628,0.6245,-1.8682,-0.0732,115.43,-6.71,-171.71
361,1222152629,0.6245,-1.7227,-0.1035,128.11,-9.63,-198.66
362,1222157627,0.5151,-1.5801,-0.1279,132.01,-11.95,-224.51
363,1222162629,0.3696,-1.4224,-0.1694,127.93,-13.54,-248.54
364,1222167628,0.2471,-1.2485,-0.2100,119.33,-13.78,-270.30
365,1222172629,0.1440,-1.0430,-0.2646,108.60,-12.99,-289.63
366,1222177627,0.0474,-0.8257,-0.3140,98.48,-11.22,-306.46
367,1222182629,-0.0059,-0.6060,-0.3530,90.24,-8.48,-321.10
368,1222187628,-0.0723,-0.3428,-0.4004,83.78,-5.06,-333.23
369,1222192627,1.6943,14.0439,8.0435,-33.23,-14.27,-215.55
370,1222197631,0.4028,9.8477,3.0264,-189.39,-30.24,-3.66
371,1222202629,1.5088,5.5156,-2.6836,-78.84,-21.10,29.70
372,1222207629,1.4248,1.8481,-2.6006,-15.79,-32.56,26.46
373,1222212627,1.0459,-1.1372,1.2012,19.39,-22.20,26.52
374,1222217627,0.9536,-1.4619,0.1938,48.66,-9.76,30.61
375,1222222630,1.0835,0.4248,-1.4580,57.01,-17.20,33.48
376,1222227629,0.9995,1.7207,0.5103,41.16,-19.39,30.55
377,1222232629,0.8965,1.5508,1.1016,21.10,-11.95,22.62
378,1222237628,0.9531,0.5537,-0.4819,2.01,-14.57,14.33
379,1222242629,0.9565,-0.1479,-0.2808,-13.60,-19.51,7.74
380,1222247627,0.8896,-0.1230,0.6055,-22.56,-16.10,2.38
381,1222252627,0.8848,0.3423,-0.0630,-29.45,-14.57,-2.93
382,1222257732,0.8833,0.7656,-0.4404,-35.73,-17.74,-7.99
383,1222262629,0.8066,0.7988,0.2646,-41.95,-17.20,-12.32
384,1222267628,0.7661,0.5532,0.2539,-48.54,-14.82,-15.43
385,1222272629,0.7656,0.4155,-0.2305,-55.30,-16.40,-17.87
386,1222277627,0.7227,0.4824,0.0312,-62.44,-17.74,-19.88
387,1222282629,0.6768,0.6123,0.2964,-69.76,-16.34,-21.77
388,1222287629,0.6318,0.7129,0.0000,-77.62,-16.65,-23.23
389,1222292627,0.5698,0.7104,-0.0474,-85.67,-18.72,-24.39
390,1222297739,0.5142,0.6318,0.1982,-92.99,-19.63,-24.63
391,1222302627,0.5171,0.5874,0.1514,-98.78,-20.73,-24.57
392,1222307627,0.5322,0.6030,0.0381,-102.38,-23.17,-24.15
393,1222312627,0.5303,0.6401,0.1704,-104.33,-25.61,-23.78
394,1222317775,0.5298,0.6348,0.2222,-105.00,-27.80,-23.23
395,1222322627,0.5312,0.6055,0.1040,-104.33,-31.28,-22.68
396,1222327627,0.5317,0.5718,0.1201,-102.07,-35.49,-22.26
397,1222332631,0.5591,0.5361,0.1909,-98.05,-39.15,-21.89
398,1222337627,0.5806,0.5112,0.1499,-92.13,-42.93,-21.59
399,1222342627,0.5840,0.4902,0.1216,-84.94,-46.77,-21.46
400,1222347627,0.5815,0.4507,0.1567,-76.52,-50.24,-21.46
401,1222352627,0.5869,0.4131,0.1392,-67.56,-53.72,-21.52
402,1222357627,0.6167,0.3911,0.0928,-58.29,-57.50,-21.83
403,1222362627,0.6582,0.3906,0.1064,-48.78,-61.28,-22.38
404,1222367627,0.7114,0.4048,0.1157,-39.21,-64.88,-23.23
405,1222372627,0.7319,0.4082,0.0830,-30.37,-68.29,-24.33
406,1222377630,0.7246,0.3979,0.0669,-22.87,-71.46,-25.55
407,1222382632,0.7095,0.3853,0.0562,-17.62,-74.09,-26.65
408,1222387628,0.7017,0.3618,0.0298,-15.24,-76.46,-27.68
409,1222392629,0.6973,0.3384,0.0010,-16.10,-78.60,-28.66
410,1222397627,0.6899,0.3105,-0.0093,-19.70,-80.43,-29.39
411,1222402629,0.6934,0.2974,-0.0327,-25.79,-81.89,-30.12
412,1222407628,0.6875,0.3101,-0.0757,-33.84,-83.11,-31.22
413,1222412629,0.6987,0.3247,-0.0972,-43.17,-84.51,-32.74
414,1222417627,0.7051,0.3340,-0.1187,-53.66,-85.12,-35.12
415,1222422629,0.6880,0.3359,-0.1523,-64.27,-85.55,-37.87
416,1222427629,0.6670,0.3174,-0.1826,-74.21,-85.43,-40.67
417,1222432627,0.6567,0.2988,-0.1929,-82.20,-84.70,-43.48
418,1222437627,0.6802,0.3013,-0.2061,-87.62,-83.41,-46.16
419,1222442627,0.7231,0.3315,-0.2202,-89.88,-81.71,-49.02
420,1222447627,0.7705,0.3574,-0.2393,-90.00,-79.02,-52.44
421,1222452627,0.7920,0.3564,-0.2607,-88.11,-75.49,-55.98
422,1222457627,0.7754,0.3550,-0.2852,-85.43,-71.28,-59.21
423,1222462627,0.7612,0.3530,-0.3232,-82.50,-67.01,-62.26
424,1222467632,0.7603,0.3579,-0.3662,-80.00,-62.38,-65.24
425,1222472629,0.7710,0.3721,-0.3662,-78.23,-57.68,-68.05
426,1222477628,0.7769,0.3916,-0.3667,-77.38,-52.44,-70.55
427,1222482629,0.7646,0.4150,-0.3706,-78.05,-46.71,-73.05
428,1222487627,0.7485,0.4395,-0.3833,-81.04,-40.73,-75.61
429,1222492629,0.7407,0.4614,-0.4053,-86.59,-34.94,-77.87
430,1222497627,0.7373,0.4912,-0.4463,-94.21,-29.57,-80.12
431,1222502704,0.6987,0.5298,-0.4883,-102.87,-24.82,-82.20
432,1222507629,0.6450,0.5693,-0.4536,-110.85,-19.76,-83.96
433,1222512627,0.7031,0.5854,-0.4219,-116.65,-14.27,-85.24
434,1222517627,0.6699,0.6694,-0.4434,-121.22,-8.96,-86.52
435,1222522627,0.6069,0.7305,-0.4785,-123.11,-3.96,-87.99
436,1222527628,0.6118,0.7827,-0.4468,-120.98,0.91,-89.15
437,1222532627,0.6675,0.8223,-0.3999,-114.88,6.34,-89.76
438,1222537629,0.6948,0.8555,-0.3931,-105.85,12.13,-89.57
439,1222542629,0.6753,0.8896,-0.3901,-95.18,17.87,-89.09
440,1222547629,0.6646,0.9253,-0.3789,-84.21,23.78,-88.11
441,1222552627,0.6665,0.9658,-0.3711,-74.27,29.51,-86.89
442,1222557627,0.6670,0.9863,-0.3701,-66.71,35.24,-85.43
443,1222562627,0.6382,1.0083,-0.3530,-62.07,41.04,-83.54
444,1222567627,0.6084,1.0342,-0.3486,-60.49,46.77,-81.28
445,1222572628,0.5767,1.0649,-0.3257,-61.34,52.50,-78.90
446,1222577627,0.5527,1.0874,-0.3101,-64.27,58.05,-76.28
447,1222582629,0.5249,1.1089,-0.2827,-68.41,63.48,-73.11
448,1222587628,0.4873,1.1177,-0.2715,-73.05,68.90,-69.57
449,1222592629,0.3486,1.5259,0.1885,-77.93,74.76,-65.55
450,1222597628,0.4834,1.4062,-0.4121,-86.40,79.70,-61.52
451,1222602629,0.2915,1.8594,0.3564,-93.41,80.30,-54.88
452,1222607628,0.3496,1.7148,0.6211,-119.94,83.17,-48.35
453,1222612629,0.4424,1.4644,0.3696,-140.79,76.10,-39.15
454,1222617627,0.4785,1.4165,1.1973,-161.89,72.62,-30.85
455,1222622629,0.6069,1.3574,1.2915,-178.66,69.57,-23.66
456,1222627631,0.7148,1.3174,0.8379,-189.51,63.41,-18.84
457,1222632627,0.7300,1.2822,0.7832,-193.29,57.32,-15.18
458,1222637627,0.6245,1.2026,0.8813,-189.57,54.02,-12.07
459,1222642627,0.5601,1.1167,0.7251,-180.61,51.28,-9.51
460,1222647627,0.5376,1.0562,0.5522,-167.87,48.29,-7.26
461,1222652627,0.5288,1.0083,0.5752,-152.62,45.91,-5.06
462,1222657627,0.5132,0.9897,0.5684,-135.49,44.21,-2.56
463,1222662627,0.5562,0.7354,0.4731,-116.46,42.62,-0.24
464,1222667627,0.5088,0.7271,0.3940,-94.09,40.73,2.07
465,1222672629,0.4067,0.7471,0.4868,-69.09,39.76,2.87
466,1222678090,0.3584,0.7515,0.4746,-43.66,39.33,3.48
467,1222682629,0.3442,0.7900,0.3374,-18.84,38.60,3.96
468,1222687628,0.3799,0.7778,0.3110,4.88,38.54,5.24
469,1222692629,0.4014,0.7490,0.3291,26.10,39.39,7.01
470,1222697628,0.4014,0.7446,0.3032,43.72,40.18,8.72
471,1222702629,0.3652,0.7271,0.2861,56.77,40.67,10.06
472,1222707628,0.3506,0.7329,0.3389,64.45,40.98,11.10
473,1222712629,0.3433,0.7617,0.2778,66.89,40.30,11.65
474,1222717627,0.4146,0.7300,0.4033,65.85,39.39,12.38
475,1222722627,0.4883,0.7656,0.4219,62.50,38.78,13.05
476,1222727745,0.5264,0.7505,0.4062,55.73,37.80,13.54
477,1222732627,0.5225,0.7412,0.3994,45.30,36.71,14.09
478,1222737631,0.5068,0.7466,0.3911,32.93,35.18,15.00
479,1222742629,0.4336,0.8066,0.2910,19.88,33.35,15.06
480,1222747628,0.5107,0.7554,0.2930,7.26,31.28,15.06
481,1222752627,0.5664,0.7012,0.3428,-4.09,30.18,15.18
482,1222757627,0.5640,0.6855,0.3193,-14.39,29.94,15.49
483,1222762627,0.5586,0.6670,0.2373,-22.99,29.94,15.91
484,1222767629,0.5269,0.6655,0.2295,-29.33,29.70,16.52
485,1222772628,0.4854,0.6924,0.2495,-33.29,29.63,17.26
486,1222777629,0.4688,0.7241,0.2441,-34.27,29.45,17.93
487,1222782628,0.4736,0.7529,0.2500,-32.38,28.96,18.60
488,1222787629,0.4829,0.7866,0.2886,-27.38,28.60,19.39
489,1222792629,0.4565,0.8281,0.3071,-19.51,28.41,20.61
490,1222797629,0.4307,0.8848,0.2886,-9.76,27.80,22.07
491,1222802628,0.4268,0.9434,0.3052,1.28,26.83,23.60
492,1222807629,0.4761,0.9805,0.3667,13.41,25.73,24.76
493,1222812627,0.5469,0.9819,0.4141,25.85,25.55,25.98
494,1222817627,0.6309,1.0225,0.3857,37.74,25.98,27.62
495,1222822628,0.6675,1.0635,0.3477,48.05,26.83,29.63
496,1222827629,0.6494,1.0654,0.3350,56.59,27.74,31.95
497,1222832627,0.6138,1.0522,0.3335,62.01,28.60,34.82
498,1222837629,0.6201,1.0410,0.3418,64.39,28.90,37.62
499,1222842630,0.6470,1.0122,0.3813,63.66,29.21,40.43
500,1222847629,0.6997,0.9878,0.4141,60.30,29.63,42.80
501,1222852628,0.7456,0.9692,0.4048,54.63,29.88,44.76
502,1222857627,0.7788,0.9629,0.4141,48.23,30.49,46.46
503,1222862627,0.7905,0.9565,0.3096,41.22,31.16,48.17
504,1222867627,0.7808,0.9717,0.2866,35.06,31.52,50.30
505,1222873050,0.7993,0.9922,0.2920,30.85,31.52,52.74
506,1222877629,0.8345,1.0103,0.2622,29.02,31.46,55.43
507,1222882628,0.8691,1.0259,0.2036,27.07,30.37,58.05
508,1222887629,0.9395,0.9995,0.2012,24.57,28.78,60.43
509,1222892629,0.9517,0.9604,0.2695,22.50,27.74,63.11
510,1222897629,0.9453,0.9390,0.2773,21.83,26.59,65.85
511,1222902628,0.9131,0.9526,0.2812,24.27,25.73,68.35
512,1222907629,0.9048,0.9609,0.2876,29.33,24.76,69.82
513,1222912628,0.9429,0.9243,0.2832,35.85,23.90,70.37
514,1222917629,0.9673,0.7700,0.3760,41.22,22.93,70.37
515,1222922628,1.0352,0.7520,0.2671,47.44,21.65,71.04
516,1222927627,1.0605,0.7583,0.2515,54.88,20.85,71.89
517,1222932629,1.0718,0.7539,0.2344,63.11,20.85,72.87
518,1222937627,1.1011,0.7827,0.1846,71.40,21.28,73.84
519,1222942627,1.1602,0.8618,0.0830,79.70,22.20,75.12
520,1222947627,1.2520,0.9224,0.0337,89.02,24.15,77.44
521,1222952629,1.0269,0.4199,0.3579,103.23,29.57,80.18
522,1222957628,0.6431,0.5430,-0.1475,110.49,33.90,79.27
523,1222962629,1.1187,0.9604,0.0327,122.01,35.24,76.22
524,1222967627,1.1167,0.8110,0.4893,134.02,40.85,76.22
525,1222972629,1.1343,0.6460,0.4287,147.32,44.02,76.40
526,1222977642,1.1245,0.6094,0.3589,158.41,45.73,76.83
527,1222982628,1.1274,0.6528,0.4004,165.79,47.32,77.26
528,1222987935,1.1685,0.7075,0.3379,170.43,49.33,77.80
529,1222992629,1.2158,0.7432,0.2183,172.87,51.10,78.78
530,1222997628,1.2959,0.7905,0.0776,175.37,53.17,80.12
531,1223002629,1.3726,0.8823,-0.1064,178.05,55.37,82.13
532,1223007628,1.3750,0.8999,-0.1582,180.73,58.11,84.51
533,1223012629,1.3525,0.8804,-0.2148,182.56,61.65,87.20
534,1223017628,1.3442,0.8667,-0.3359,182.56,65.00,90.73
535,1223022627,1.3115,0.8237,-0.3389,180.18,68.48,94.15
536,1223027630,1.2441,0.7671,-0.2632,174.39,72.32,96.95
537,1223032627,1.1733,0.7319,-0.2212,164.82,75.73,99.02
538,1223037629,1.1284,0.7104,-0.1611,152.44,79.27,100.49
539,1223042905,1.1055,0.7231,-0.1240,138.35,82.99,101.40
540,1223047629,1.0757,0.7251,-0.0718,125.37,86.34,102.32
541,1223052628,1.0742,0.7432,-0.0830,113.11,90.79,103.72
542,1223057630,1.0605,0.7617,-0.1309,102.74,94.94,105.61
543,1223062788,1.0815,0.7959,-0.1343,94.09,99.27,107.99
544,1223067629,1.1118,0.8101,-0.1538,86.89,103.84,110.73
545,1223072628,1.1895,0.8096,-0.1636,80.55,108.35,113.72
546,1223077629,1.2642,0.8057,-0.1484,73.90,112.74,116.34
547,1223082629,1.3027,0.7861,-0.1240,66.52,116.52,118.78
548,1223087628,1.3115,0.7729,-0.0674,58.60,120.37,121.04
549,1223092629,1.3013,0.7686,0.0063,52.13,123.60,123.35
550,1223097652,1.3130,0.7642,0.0923,48.96,125.98,125.91
551,1223102629,1.3301,0.7520,0.1968,49.94,127.50,128.54
552,1223107628,1.3623,0.7437,0.2539,54.76,128.23,131.22
553,1223112627,1.4238,0.8062,0.2383,61.40,127.99,133.66
554,1223117629,1.3804,0.7725,0.2832,70.98,127.80,136.10
555,1223122631,1.3857,0.7324,0.3428,80.37,128.29,139.21
556,1223127628,1.4155,0.7886,0.1450,87.01,128.11,141.77
557,1223132629,1.4224,0.8081,0.1157,90.06,127.93,144.09
558,1223137629,1.4004,0.8506,0.1729,89.33,128.72,146.16
559,1223142627,1.3862,0.8657,0.1406,85.49,129.94,148.48
560,1223147629,1.3496,0.8755,0.1382,79.51,131.10,151.10
561,1223152632,1.3115,0.8857,0.1528,73.29,132.26,154.09
562,1223157629,1.2759,0.9092,0.1709,67.87,133.78,157.32
563,1223162629,1.2524,0.9097,0.1885,64.02,134.94,160.73
564,1223167629,1.2339,0.9058,0.1978,61.10,136.28,164.45
565,1223172629,1.2207,0.8984,0.2153,59.39,137.68,168.35
566,1223177629,1.2275,0.9097,0.1880,58.35,139.02,172.13
567,1223182627,1.2373,0.9126,0.1919,57.56,140.55,175.61
568,1223187628,1.2500,0.9253,0.1978,56.52,142.38,179.02
569,1223192629,1.2573,0.9424,0.1665,54.27,144.02,182.32
570,1223197630,1.2280,0.9448,0.1929,51.65,145.49,185.73
571,1223202629,1.1738,0.9404,0.2280,48.78,146.95,189.45
572,1223207627,1.1416,0.9385,0.2271,44.94,148.41,192.93
573,1223212630,1.1133,0.9326,0.2095,40.73,149.76,196.22
574,1223217628,1.0742,0.9165,0.1963,35.79,151.10,199.51
575,1223222629,1.0190,0.9004,0.2017,30.49,152.38,202.62
576,1223227627,0.9639,0.8789,0.2349,25.85,153.35,205.98
577,1223232629,0.9175,0.8652,0.2871,21.83,154.09,209.33
578,1223237631,0.8765,0.8535,0.3286,18.54,154.45,212.74
579,1223242629,0.8477,0.8511,0.3457,15.43,154.39,215.91
580,1223247630,0.8462,0.8428,0.3496,12.99,154.21,219.15
581,1223252628,0.8535,0.8359,0.3735,11.10,154.15,222.07
582,1223257629,0.8589,0.8174,0.3872,10.43,154.02,224.63
583,1223262627,0.8516,0.7871,0.3965,9.82,153.96,226.46
584,1223267627,0.8467,0.7383,0.4019,7.74,154.15,227.80
585,1223272628,0.8330,0.6938,0.3926,5.06,154.02,228.72
586,1223277629,0.8267,0.6499,0.3887,2.38,153.72,229.02
587,1223282629,0.8145,0.6084,0.3882,-0.18,153.17,228.66
588,1223287628,0.7847,0.5630,0.3730,-3.17,152.74,227.93
589,1223292629,0.7461,0.5244,0.3428,-6.40,151.89,227.20
590,1223297627,0.7236,0.5044,0.3521,-8.78,150.98,226.71
591,1223302629,0.7290,0.5000,0.3799,-9.33,149.70,226.52
592,1223307628,0.7495,0.5000,0.4033,-8.66,148.35,226.04
593,1223312628,0.7588,0.4771,0.4170,-7.93,146.95,225.49
594,1223317629,0.7642,0.4561,0.4224,-8.23,145.55,224.76
595,1223322627,0.7778,0.4429,0.4321,-8.48,144.09,223.48
596,1223327629,0.7939,0.4370,0.4546,-8.11,142.32,222.13
597,1223332628,0.8066,0.4116,0.4795,-7.07,140.61,220.37
598,1223337736,0.8237,0.4048,0.5005,-5.37,138.66,218.41
599,1223342628,0.8271,0.3862,0.4937,-3.05,136.89,215.98
600,1223347629,0.7915,0.3706,0.4795,-0.61,135.06,213.48
601,1223352629,0.7554,0.3604,0.4619,1.16,133.35,210.91
602,1223357629,0.7153,0.3633,0.4585,1.40,131.52,208.35
603,1223362629,0.6572,0.3750,0.4634,-0.30,129.45,206.04
604,1223367627,0.5894,0.3853,0.4697,-3.41,127.68,204.21
605,1223372629,0.5474,0.3960,0.4692,-7.01,125.67,202.74
606,1223377629,0.5435,0.4048,0.4873,-10.49,123.72,201.95
607,1223382627,0.5366,0.4248,0.5254,-13.23,121.77,201.65
608,1223387629,0.5371,0.4346,0.5679,-14.45,119.57,201.52
609,1223392629,0.5571,0.4253,0.6255,-14.09,117.32,201.40
610,1223397628,0.5801,0.4038,0.6836,-12.32,115.00,201.34
611,1223402629,0.5996,0.3691,0.7207,-10.30,112.50,200.79
612,1223407627,0.6050,0.3208,0.7295,-8.84,110.18,199.45
613,1223412629,0.6089,0.2832,0.7207,-8.54,108.17,197.50
614,1223417628,0.6040,0.2290,0.7339,-9.51,106.28,195.00
615,1223422627,0.5640,0.1724,0.7388,-11.04,104.09,192.13
616,1223427627,0.5015,0.1245,0.7568,-12.26,101.89,189.21
617,1223432627,0.4526,0.0923,0.7661,-12.07,99.09,186.34
618,1223437627,0.4082,0.0552,0.7700,-11.28,96.34,183.60
619,1223442627,0.3447,0.0259,0.7695,-11.10,93.72,180.91
620,1223447631,0.2778,0.0088,0.7861,-11.34,90.61,178.60
621,1223452631,0.2168,-0.0015,0.8291,-11.71,86.89,176.77
622,1223457629,0.1655,-0.0073,0.8799,-11.52,84.45,175.00
623,1223462629,0.1187,-0.0078,0.9199,-10.85,80.12,173.66
624,1223467629,0.0918,-0.0303,0.9507,-9.88,75.67,172.50
625,1223472628,0.0864,-0.0576,0.9844,-9.15,70.91,171.71
626,1223477629,0.1094,-0.0708,1.0239,-7.56,66.28,170.55
627,1223482628,0.1357,-0.0996,1.0459,-5.37,61.46,168.90
628,1223487629,0.1606,-0.1211,1.0532,-3.05,57.07,166.59
629,1223492629,0.1870,-0.1421,1.0474,-1.22,52.99,163.66
630,1223497629,0.2075,-0.1616,1.0317,0.06,49.09,160.12
631,1223502628,0.1792,-0.1851,1.0137,0.91,45.85,156.10
632,1223507629,0.1060,-0.2153,0.9814,0.43,43.11,151.95
633,1223512627,0.0610,-0.2251,0.9722,-0.98,40.43,147.93
634,1223517627,0.0200,-0.2290,0.9780,-2.32,38.05,144.27
635,1223522629,-0.0273,-0.2300,0.9741,-2.62,35.79,140.98
636,1223527629,-0.0176,-0.2246,0.9673,-2.80,33.54,138.11
637,1223532629,-0.0039,-0.2202,0.9639,-3.41,31.28,135.43
638,1223537628,0.0161,-0.2349,0.9883,-3.60,29.39,132.87
639,1223542629,0.0112,-0.2607,0.9897,-3.96,27.44,130.00
640,1223547629,0.0229,-0.2939,0.9761,-4.27,25.67,126.71
641,1223552627,0.0449,-0.3262,0.9663,-4.02,24.21,123.17
642,1223557631,0.0835,-0.3530,0.9585,-2.68,22.99,119.09
643,1223562628,0.1172,-0.3677,0.9546,-0.18,22.07,114.70
644,1223567628,0.1074,-0.3662,0.9507,3.05,21.65,110.00
645,1223572629,0.0908,-0.3516,0.9370,5.85,21.59,105.43
646,1223577628,0.0586,-0.3320,0.8994,7.07,21.95,100.79
647,1223582629,0.0122,-0.3096,0.8765,6.46,22.56,96.71
648,1223587628,-0.0190,-0.2759,0.8657,5.00,23.41,93.11
649,1223592658,-0.0386,-0.2285,0.8633,3.72,24.63,89.94
650,1223597630,-0.0493,-0.1924,0.8657,2.38,25.98,86.95
651,1223602628,-0.0591,-0.1528,0.8550,0.37,27.74,84.82
652,1223607629,-0.0547,-0.1055,0.8374,-2.62,29.57,82.74
653,1223612627,-0.0527,-0.0610,0.8403,-5.91,31.65,81.46
654,1223617629,-0.0361,-0.0337,0.8569,-8.60,33.29,80.91
655,1223622629,-0.0151,-0.0103,0.8926,-10.30,34.45,80.85
656,1223627628,0.0273,0.0103,0.9058,-11.28,35.30,80.73
657,1223632629,0.0454,0.0083,0.8789,-12.38,36.10,80.37
658,1223637627,0.0068,-0.0117,0.8521,-14.45,36.83,79.88
659,1223642629,-0.0376,-0.0386,0.8237,-17.68,37.80,79.33
660,1223647629,-0.0674,-0.0562,0.8066,-21.28,38.54,78.54
661,1223652629,-0.0913,-0.0767,0.8003,-23.84,39.09,77.50
662,1223657629,-0.1196,-0.1250,0.7798,-25.30,39.39,76.10
663,1223662629,-0.1245,-0.1831,0.7856,-24.88,39.45,74.57
664,1223667628,-0.1289,-0.2446,0.7979,-21.52,39.15,72.50
665,1223672627,-0.1333,-0.3003,0.7935,-16.40,38.72,69.94
666,1223677627,-0.1411,-0.3496,0.7681,-11.77,38.29,66.52
667,1223682627,-0.1499,-0.3994,0.7446,-9.82,38.11,62.44
668,1223687631,-0.1943,-0.4585,0.7285,-9.88,37.87,57.68
669,1223692629,-0.2324,-0.4834,0.7554,-9.45,37.44,52.99
670,1223697629,-0.2231,-0.4639,0.7925,-7.01,36.34,48.60
671,1223702629,-0.2114,-0.4482,0.8232,-3.66,34.94,44.15
672,1223707685,-0.2188,-0.4429,0.8335,-1.65,33.54,40.00
673,1223712631,-0.2310,-0.4326,0.8501,-1.28,31.46,36.04
674,1223717628,-0.2427,-0.4062,0.8770,-0.12,29.15,32.07
675,1223722630,-0.2461,-0.3887,0.8984,3.11,26.71,28.05
676,1223727628,-0.2808,-0.3809,0.8975,6.95,24.02,23.84
677,1223732629,-0.3062,-0.4082,0.8569,9.27,21.59,19.70
678,1223737629,-0.3340,-0.4043,0.8423,10.73,19.27,15.49
679,1223742627,-0.3452,-0.3843,0.8398,15.06,16.77,11.40
680,1223747627,-0.3530,-0.3564,0.8369,21.77,14.57,6.83
681,1223752627,-0.3945,-0.3438,0.8115,28.96,12.80,1.59
682,1223757627,-0.4839,-0.3472,0.7871,34.21,11.34,-4.33
683,1223762627,-0.5840,-0.3506,0.7793,37.01,10.37,-10.85
684,1223767627,-0.6562,-0.3296,0.7993,38.35,9.39,-18.11
685,1223772629,-0.7329,-0.3042,0.8462,39.51,8.66,-26.59
686,1223777627,-0.8540,-0.2822,0.8862,39.63,8.17,-36.46
687,1223782631,-0.9785,-0.2520,0.9331,37.93,7.07,-47.74
688,1223787627,-1.1333,-0.2129,0.9766,35.61,5.43,-60.55
689,1223792629,-1.2939,-0.1655,1.0029,34.51,3.23,-75.18
690,1223797629,-1.4639,-0.1206,1.0161,34.33,0.24,-91.65
691,1223802629,-1.6255,-0.0742,0.9985,32.99,-3.41,-109.88
692,1223807628,-1.7832,-0.0303,0.9697,29.88,-8.17,-130.06
693,1223812627,-1.9341,0.0254,0.8979,26.16,-13.84,-152.44
694,1223817631,-2.0791,0.0737,0.7544,24.70,-20.67,-176.83
695,1223822629,-2.1934,0.1528,0.6245,24.70,-27.74,-203.11
696,1223827628,-2.3813,0.1743,0.5874,23.35,-34.57,-230.91
697,1223832627,-2.5649,0.2729,0.3887,16.22,-42.07,-260.00
698,1223837627,-2.7100,0.4131,0.2896,5.79,-50.12,-290.43
699,1223842627,-2.8662,0.5898,0.1636,-6.04,-57.20,-321.71
700,1223847628,-3.2295,0.7729,0.3120,-20.79,-63.41,-352.68
701,1223852629,-3.8062,0.8594,0.1489,-41.04,-70.85,-382.20
702,1223857629,-4.1909,1.0195,0.5195,-60.43,-79.76,-409.21
703,1223862629,-4.7651,1.2778,0.8379,-69.02,-85.37,-433.41
704,1223867628,-5.1431,1.4629,0.5161,-65.98,-93.23,-454.88
705,1223872629,-5.2964,1.6470,0.6235,-48.54,-102.74,-475.55
706,1223877628,-5.4170,1.8662,1.1992,-18.05,-111.71,-495.43
707,1223882627,-5.5674,1.9961,1.4004,3.35,-124.57,-516.77
708,1223887627,-6.0205,1.7979,1.9053,0.30,-141.16,-545.67
709,1223892629,-6.2261,1.8374,1.4263,-24.15,-159.51,-572.07
710,1223897628,-6.0488,1.6392,1.7686,-51.10,-173.48,-612.20
711,1223902629,-5.9077,1.7163,1.5117,-62.01,-184.70,-658.17
712,1223907628,-5.7017,2.0879,1.4395,-65.55,-195.67,-705.98
713,1223912629,-5.5376,2.5796,1.5005,-66.28,-204.27,-755.55
714,1223917628,-5.4868,3.0483,1.3101,-67.50,-211.16,-805.37
715,1223922724,-5.4531,3.5176,1.0898,-71.89,-217.44,-853.78
716,1223927629,-5.4473,3.9912,0.9922,-79.27,-221.40,-899.76
717,1223932628,-5.5552,4.4722,0.7871,-88.41,-222.93,-940.98
718,1223937717,-5.6943,4.9893,0.4668,-96.46,-223.11,-976.52
719,1223942629,-5.8364,5.5146,0.2124,-100.00,-222.07,-1004.88
720,1223947628,-5.9785,5.9761,-0.0786,-95.67,-220.55,-1024.51
721,1223952627,-5.9746,6.3813,-0.4409,-82.93,-219.82,-1034.63
722,1223957629,-5.6787,6.8384,-0.6992,-63.29,-220.98,-1035.61
723,1223962629,-5.0474,7.4370,-0.8779,-38.17,-223.90,-1030.73
724,1223967628,-4.2954,8.0063,-1.0205,-10.43,-229.39,-1021.89
725,1223972630,-3.6211,8.5376,-1.2383,15.85,-237.38,-1009.45
726,1223977655,-3.1597,8.9751,-1.3574,36.89,-246.89,-992.38
727,1223982627,-2.9229,9.3511,-1.5435,53.41,-256.46,-969.82
728,1223987627,-2.6738,9.7319,-1.7183,66.89,-265.55,-941.59
729,1223992629,-2.3589,10.0376,-1.8711,80.85,-273.72,-907.68
730,1223997627,-2.0664,10.1997,-2.0591,95.49,-280.18,-867.80
731,1224002627,-1.8369,10.3745,-2.2266,109.88,-284.82,-822.26
732,1224007629,-1.6401,10.4619,-2.4043,124.94,-287.20,-771.04
733,1224012629,-1.4414,10.4985,-2.6309,136.89,-286.89,-715.24
734,1224017628,-1.1475,10.4707,-2.7783,145.49,-283.54,-656.83
735,1224022629,-0.8291,10.3696,-2.8970,149.02,-276.77,-597.74
736,1224027628,-0.5488,10.1650,-3.0249,143.96,-266.65,-539.63
737,1224032630,-0.2588,9.8960,-3.1104,127.93,-253.66,-483.23
738,1224037628,0.0923,9.6299,-3.1182,102.74,-238.48,-429.88
739,1224042629,0.4927,9.2993,-3.1001,72.44,-221.65,-380.30
740,1224047628,0.8389,8.8950,-3.0264,40.85,-204.27,-334.70
741,1224052627,1.1958,8.4258,-2.9092,11.40,-186.89,-293.05
742,1224057764,1.4731,7.9326,-2.7388,-13.29,-170.49,-254.39
743,1224062629,1.7002,7.4053,-2.5688,-31.10,-155.79,-218.35
744,1224067628,1.8389,6.8569,-2.4038,-42.26,-143.11,-185.06
745,1224072627,1.9238,6.3120,-2.2227,-47.13,-132.62,-154.21
746,1224077629,2.0068,5.7661,-2.0298,-46.16,-124.09,-126.04
747,1224082627,2.0459,5.2158,-1.8643,-39.57,-117.87,-100.43
748,1224087627,2.0693,4.6733,-1.6880,-29.45,-113.41,-77.38
749,1224092627,2.0854,4.1484,-1.5293,-17.32,-110.30,-57.32
750,1224097627,2.0693,3.6621,-1.3618,-4.33,-107.99,-39.94
751,1224102629,2.0449,3.2095,-1.1929,7.50,-105.85,-25.67
752,1224107628,1.9961,2.7905,-1.0469,16.10,-103.60,-14.21
753,1224112629,1.9297,2.4512,-0.9180,19.88,-100.85,-5.85
754,1224117628,1.8730,2.1714,-0.7529,19.70,-97.62,-0.30
755,1224122631,1.7559,1.9556,-0.6113,14.63,-93.78,2.44
756,1224127628,1.6948,1.7852,-0.4810,3.54,-88.60,2.80
757,1224132630,1.6523,1.6338,-0.3955,-15.30,-83.35,1.10
758,1224137628,1.5171,1.4800,-0.3403,-41.83,-78.23,-2.01
759,1224142629,1.4263,1.3086,-0.2905,-71.28,-73.66,-5.98
760,1224147629,1.4277,1.1543,-0.2295,-96.52,-69.82,-10.30
761,1224152629,1.4526,1.0161,-0.1758,-112.32,-66.65,-14.76
762,1224157628,1.5010,0.8687,-0.1479,-117.07,-64.63,-19.51
763,1224162629,1.5249,0.7446,-0.1450,-111.52,-63.72,-24.21
764,1224167741,1.5317,0.6104,-0.1587,-97.32,-64.39,-28.54
765,1224172629,1.4609,0.4673,-0.1621,-76.04,-66.22,-32.38
766,1224177629,1.3813,0.3721,-0.1797,-50.06,-69.15,-35.49
767,1224182627,1.3203,0.2974,-0.1870,-21.52,-72.68,-38.35
768,1224187633,1.2417,0.2720,-0.1895,6.77,-76.40,-40.98
769,1224192629,1.1357,0.2739,-0.1455,32.07,-79.70,-43.11
770,1224197631,0.9614,0.3032,-0.0830,51.95,-81.77,-44.57
771,1224202631,0.8159,0.3579,-0.0234,63.90,-82.74,-45.61
772,1224207628,0.6973,0.4390,0.0571,66.83,-81.77,-46.34
773,1224212630,0.5972,0.5059,0.1348,60.43,-78.96,-46.95
774,1224217633,0.5215,0.5889,0.1680,45.24,-74.63,-47.68
775,1224222628,0.5098,0.6685,0.1904,23.17,-69.94,-48.84
776,1224227629,0.5020,0.7295,0.2100,-2.56,-64.70,-50.37
777,1224232629,0.4897,0.7734,0.2026,-27.44,-59.45,-52.13
778,1224237629,0.4902,0.7705,0.1899,-47.87,-54.94,-53.72
779,1224242627,0.5493,0.7739,0.1743,-59.76,-51.22,-54.88
780,1224247629,0.6245,0.7847,0.1694,-60.61,-48.54,-55.73
781,1224252629,0.6895,0.8081,0.1611,-50.91,-46.46,-56.22
782,1224257629,0.6821,0.8101,0.1553,-33.66,-45.49,-56.10
783,1224262631,0.6206,0.8101,0.1235,-13.72,-45.12,-54.70
784,1224267628,0.5571,0.8105,0.0913,5.49,-45.61,-52.07
785,1224272627,0.4751,0.8320,0.0825,21.71,-46.46,-48.60
786,1224277629,0.3721,0.8550,0.0835,34.02,-47.38,-44.57
787,1224282628,0.2812,0.8647,0.0874,42.07,-47.74,-40.43
788,1224287629,0.1772,0.8818,0.1030,45.73,-47.38,-36.04
789,1224292628,0.0874,0.8989,0.1235,45.73,-46.34,-31.89
790,1224297627,0.0356,0.9141,0.1558,43.48,-44.51,-27.87
791,1224302631,0.0190,0.9492,0.1968,40.24,-41.71,-24.39
792,1224307629,0.0146,0.9570,0.2427,36.10,-38.05,-21.65
793,1224312629,0.0020,0.9561,0.2637,29.76,-34.09,-19.39
794,1224317629,0.0059,0.9639,0.2666,20.91,-30.00,-17.68
795,1224322629,0.0474,0.9761,0.2700,9.94,-26.22,-17.07
796,1224327629,0.1055,0.9863,0.2715,-2.26,-22.99,-17.44
797,1224332629,0.1309,0.9912,0.2598,-14.82,-20.24,-18.35
798,1224337629,0.1260,0.9922,0.2393,-27.13,-18.41,-19.63
799,1224342627,0.1694,0.9844,0.2217,-36.95,-17.32,-21.10
800,1224347629,0.2388,0.9917,0.2051,-42.87,-17.01,-22.56
801,1224352628,0.2759,0.9761,0.1953,-44.02,-17.07,-23.84
802,1224357627,0.2427,0.9453,0.1704,-41.59,-17.50,-24.21
803,1224362627,0.2041,0.9160,0.1382,-36.16,-18.29,-23.72
804,1224367627,0.1719,0.8936,0.1323,-28.05,-19.33,-22.32
805,1224372627,0.1187,0.8760,0.1377,-17.44,-20.06,-20.30
806,1224377630,0.0640,0.8501,0.1514,-4.94,-20.67,-17.93
807,1224382629,0.0415,0.8228,0.1646,8.72,-21.10,-15.43
808,1224387628,0.0601,0.8481,0.1816,22.62,-21.40,-13.66
809,1224392629,0.0723,0.8633,0.2271,34.94,-21.34,-12.56
810,1224397629,0.0195,0.8853,0.2358,43.48,-20.98,-12.32
811,1224402629,-0.0288,0.9111,0.2329,46.52,-20.30,-12.87
812,1224407629,-0.0200,0.9531,0.2319,44.21,-19.88,-14.02
813,1224412629,-0.0239,0.9980,0.2490,37.26,-19.39,-16.10
814,1224417629,-0.0376,1.0322,0.2471,26.77,-19.09,-18.78
815,1224423155,-0.0796,1.0474,0.2388,10.61,-18.35,-22.07
816,1224427629,-0.0840,1.0347,0.2236,-1.22,-17.93,-23.78
817,1224432629,-0.0820,1.0278,0.1943,-15.06,-17.50,-25.24
818,1224437629,-0.0698,1.0249,0.1968,-25.30,-16.95,-25.85
819,1224442629,-0.0610,1.0132,0.1934,-29.94,-16.59,-25.55
820,1224447629,-0.0762,1.0044,0.1938,-28.90,-16.16,-24.57
821,1224452629,-0.0898,0.9766,0.1855,-23.05,-15.79,-22.74
822,1224457629,-0.0928,0.9551,0.1895,-13.90,-15.55,-20.49
823,1224462629,-0.0776,0.9199,0.1802,-3.41,-15.79,-18.05
824,1224467629,-0.0537,0.8921,0.1958,6.89,-15.79,-15.79
825,1224472627,-0.0396,0.8618,0.2007,15.00,-16.16,-13.72
826,1224477629,-0.0400,0.8462,0.2104,20.00,-16.71,-12.01
827,1224482629,-0.0518,0.8418,0.2061,21.34,-17.32,-10.79
828,1224487628,-0.0576,0.8687,0.2168,19.88,-18.11,-10.37
829,1224492627,-0.0654,0.8916,0.2339,16.77,-18.60,-10.98
830,1224497627,-0.0796,0.8999,0.2495,12.62,-19.15,-12.26
831,1224502627,-0.0928,0.9033,0.2637,7.93,-19.51,-14.09
832,1224507629,-0.0781,0.8984,0.2798,3.54,-19.88,-16.28
833,1224512629,-0.0630,0.8779,0.2974,0.24,-20.06,-18.48
834,1224517628,-0.0449,0.8496,0.3066,-2.01,-20.73,-20.67
835,1224522629,-0.0161,0.8262,0.3145,-3.05,-21.16,-22.68
836,1224527628,-0.0005,0.7988,0.3262,-3.23,-21.83,-24.27
837,1224532629,-0.0010,0.7744,0.3301,-2.62,-22.56,-25.30
838,1224537628,-0.0005,0.7563,0.3232,-1.95,-23.29,-26.04
839,1224542630,-0.0156,0.7451,0.3228,-1.71,-24.27,-25.85
840,1224547628,-0.0420,0.7461,0.3052,-2.20,-25.43,-25.37
841,1224552629,-0.0601,0.7627,0.2910,-3.54,-26.65,-24.57
842,1224557628,-0.0645,0.7822,0.2573,-5.49,-28.23,-23.66
843,1224562629,-0.0894,0.8091,0.2490,-7.32,-30.18,-22.68
844,1224567628,-0.1260,0.8423,0.2417,-8.23,-32.07,-21.83
845,1224572629,-0.1436,0.8682,0.2515,-7.80,-34.09,-21.22
846,1224577628,-0.1509,0.8877,0.2607,-5.61,-35.49,-20.85
847,1224582627,-0.1426,0.8955,0.2715,-2.01,-37.20,-20.61
848,1224587629,-0.1309,0.8916,0.2876,2.68,-38.41,-20.55
849,1224592736,-0.1143,0.8813,0.3018,7.62,-39.51,-20.30
850,1224597871,-0.1006,0.8711,0.3193,11.89,-40.67,-20.30
851,1224602631,-0.0879,0.8555,0.3374,14.82,-41.59,-20.18
852,1224607628,-0.0640,0.8462,0.3535,16.16,-42.80,-20.18
853,1224612627,-0.0352,0.8359,0.3721,15.43,-43.96,-20.18
854,1224617627,0.0059,0.8345,0.3862,12.32,-45.06,-19.94
855,1224623052,0.0278,0.8242,0.3809,5.55,-46.59,-19.51
856,1224627629,0.0259,0.8306,0.3726,-0.43,-47.74,-18.84
857,1224632629,0.0156,0.8594,0.3608,-7.50,-49.15,-18.05
858,1224637629,0.0010,0.8994,0.3711,-12.38,-50.30,-17.38
859,1224642629,-0.0356,0.9478,0.3706,-14.02,-51.22,-16.95
860,1224647629,-0.0723,0.9937,0.3750,-12.20,-51.83,-17.01
861,1224652627,-0.1040,1.0337,0.3799,-7.38,-52.26,-17.50
862,1224657690,-0.1172,1.0542,0.3892,-0.67,-52.32,-18.48
863,1224662628,-0.1045,1.0630,0.3984,6.40,-52.13,-19.94
864,1224667627,-0.0708,1.0635,0.4102,12.80,-52.01,-21.71
865,1224672627,-0.0342,1.0596,0.4331,17.68,-51.95,-23.84
866,1224677627,-0.0020,1.0581,0.4570,20.12,-51.71,-26.04
867,1224682627,0.0283,1.0542,0.4727,20.00,-51.46,-28.17
868,1224687627,0.0454,1.0479,0.4854,17.56,-51.10,-30.06
869,1224692629,0.0605,1.0552,0.4961,13.66,-50.85,-31.77
870,1224697628,0.0742,1.0674,0.5039,9.51,-50.61,-33.17
871,1224702627,0.0801,1.0874,0.5122,6.04,-50.49,-34.33
872,1224707629,0.0688,1.0991,0.5244,4.15,-50.18,-35.12
873,1224713173,0.0542,1.1206,0.5278,4.70,-49.82,-35.61
874,1224717631,0.0513,1.1353,0.5337,6.71,-49.70,-35.79
875,1224722629,0.0522,1.1587,0.5488,10.98,-49.82,-35.79
876,1224727629,0.0498,1.1694,0.5464,16.34,-49.76,-35.55
877,1224732627,0.0498,1.1890,0.5493,22.44,-49.94,-35.18
878,1224737629,0.0562,1.1885,0.5527,28.23,-50.43,-34.63
879,1224742629,0.0664,1.1982,0.5605,33.78,-51.16,-33.84
880,1224747628,0.0679,1.2119,0.5659,38.66,-51.95,-33.05
881,1224752627,0.0586,1.2124,0.5728,43.11,-52.74,-32.01
882,1224757629,0.0469,1.2246,0.5801,46.83,-53.72,-30.85
883,1224762627,0.0498,1.2251,0.5854,49.51,-54.51,-29.51
884,1224767629,0.0337,1.2241,0.5840,50.98,-55.06,-27.87
885,1224772629,0.0117,1.2290,0.5669,51.10,-55.55,-26.04
886,1224777628,0.0098,1.2290,0.5771,50.43,-56.10,-23.78
887,1224782629,0.0029,1.2349,0.5762,48.78,-56.16,-20.98
888,1224787629,-0.0034,1.2383,0.5684,47.56,-55.98,-18.72
889,1224792630,-0.0098,1.2256,0.5659,45.98,-55.73,-15.98
890,1224797629,-0.0122,1.2173,0.5669,44.82,-55.12,-13.17
891,1224802627,-0.0059,1.2090,0.5591,44.51,-54.39,-10.24
892,1224807629,0.0029,1.2070,0.5566,45.24,-53.35,-7.44
893,1224812629,0.0225,1.1987,0.5659,47.26,-52.20,-4.88
894,1224817638,0.0488,1.1826,0.5649,50.06,-50.85,-2.32
895,1224822627,0.0537,1.1704,0.5601,53.23,-49.39,0.37
896,1224827627,0.0571,1.1523,0.5542,55.98,-47.87,2.93
897,1224832629,0.0776,1.1362,0.5430,57.87,-46.34,5.61
898,1224837627,0.0908,1.1211,0.5347,58.78,-44.88,8.11
899,1224842661,0.1118,1.0962,0.5278,58.66,-43.72,10.67
900,1224847630,0.1250,1.0684,0.5269,57.74,-42.44,13.17
901,1224852628,0.1309,1.0430,0.5229,56.28,-41.28,15.55
902,1224857629,0.1230,1.0112,0.5186,54.63,-40.00,17.87
903,1224862629,0.1226,0.9731,0.5200,52.93,-38.72,20.24
904,1224867628,0.1289,0.9458,0.5142,51.40,-37.56,22.62
905,1224872629,0.1406,0.9204,0.5088,50.49,-36.34,24.57
906,1224877628,0.1543,0.8921,0.5122,50.24,-35.24,26.52
907,1224882629,0.1582,0.8682,0.5093,50.55,-34.09,28.23
908,1224887627,0.1660,0.8521,0.4966,51.16,-32.93,29.63
909,1224892629,0.1787,0.8447,0.4966,51.22,-31.71,30.91
910,1224897629,0.1724,0.8433,0.4878,50.67,-30.30,31.71
911,1224902627,0.1475,0.8423,0.4829,48.90,-28.66,32.62
912,1224907629,0.1152,0.8408,0.4707,45.61,-26.77,33.29
913,1224912628,0.1113,0.8447,0.4609,41.34,-24.63,34.21
914,1224917629,0.1138,0.8525,0.4570,36.83,-22.38,35.00
915,1224922907,0.1113,0.8682,0.4561,32.68,-19.70,35.91
916,1224927629,0.0981,0.8638,0.4536,29.27,-16.95,36.83
917,1224932629,0.0894,0.8594,0.4434,26.22,-13.78,37.62
918,1224937628,0.0923,0.8506,0.4312,23.78,-10.79,38.78
919,1224942627,0.1021,0.8413,0.4277,21.89,-7.87,40.00
920,1224947629,0.1079,0.8398,0.4224,20.67,-5.12,41.10
921,1224952629,0.1182,0.8364,0.4131,20.12,-2.62,42.20
922,1224957629,0.1304,0.8247,0.4087,19.88,-0.30,43.11
923,1224962629,0.1460,0.8198,0.3989,19.76,1.71,44.21
924,1224967629,0.1470,0.8149,0.3857,19.82,3.41,45.00
925,1224972629,0.1445,0.8110,0.3823,20.12,4.88,45.85
926,1224977629,0.1436,0.8101,0.3750,20.85,6.16,46.46
927,1224982629,0.1367,0.8096,0.3711,21.65,7.20,46.95
928,1224987630,0.1348,0.8198,0.3643,22.93,8.17,47.32
929,1224992629,0.1328,0.8242,0.3594,24.45,8.90,47.32
930,1224997630,0.1279,0.8345,0.3672,25.85,9.76,47.13
931,1225002629,0.1235,0.8472,0.3770,27.20,10.91,46.83
932,1225007629,0.1260,0.8555,0.3740,27.68,12.13,46.22
933,1225012629,0.1206,0.8550,0.3735,27.26,13.35,45.61
934,1225017630,0.1172,0.8696,0.3730,26.28,14.76,45.06
935,1225023005,0.1270,0.8896,0.3799,24.63,16.40,44.15
936,1225027629,0.1338,0.8984,0.3862,23.72,17.68,43.54
937,1225032629,0.1411,0.9146,0.3813,23.17,19.27,42.93
938,1225037629,0.1509,0.9448,0.3765,22.80,20.91,42.26
939,1225042629,0.1538,0.9634,0.3682,22.74,22.62,41.71
940,1225047629,0.1567,0.9858,0.3579,22.74,24.09,41.22
941,1225052629,0.1499,1.0078,0.3560,22.99,25.43,40.73
942,1225057629,0.1514,1.0220,0.3496,23.35,26.83,40.43
943,1225062629,0.1528,1.0381,0.3467,23.90,28.11,40.00
944,1225067629,0.1416,1.0532,0.3276,24.82,29.21,39.88
945,1225072719,0.1387,1.0664,0.3193,26.04,30.18,39.76
946,1225077629,0.1270,1.0737,0.3120,27.80,31.10,39.94
947,1225082629,0.1260,1.0786,0.3120,30.12,32.20,40.37
948,1225087627,0.1201,1.0840,0.3057,32.99,33.29,40.98
949,1225092627,0.1118,1.0918,0.3115,36.04,34.51,41.89
950,1225097737,0.0972,1.0918,0.3169,39.02,35.67,42.74
951,1225102629,0.0913,1.0869,0.3174,41.77,37.07,44.02
952,1225107627,0.0830,1.0874,0.3223,44.02,38.41,45.37
953,1225112631,0.0723,1.0806,0.3262,45.18,39.88,46.65
954,1225117627,0.0747,1.0728,0.3320,45.24,41.46,48.17
955,1225122631,0.0898,1.0815,0.3413,44.09,42.93,49.39
956,1225127628,0.1074,1.0986,0.3335,41.83,44.09,50.37
957,1225132627,0.1099,1.1079,0.3330,38.60,45.37,51.04
958,1225137631,0.1357,1.1177,0.3296,34.82,46.22,51.28
959,1225142629,0.1528,1.1392,0.3306,31.52,46.83,51.59
960,1225147628,0.1689,1.1519,0.3286,29.39,47.38,51.71
961,1225152629,0.1841,1.1670,0.3320,28.54,47.93,51.77
962,1225157628,0.1880,1.1758,0.3276,29.09,48.54,51.89
963,1225162627,0.1929,1.1855,0.3188,30.79,48.96,52.07
964,1225167637,0.1943,1.1826,0.3125,33.23,49.39,52.50
965,1225172628,0.1880,1.1899,0.2935,36.46,49.76,53.11
966,1225177631,0.1953,1.1870,0.2769,40.37,49.88,54.09
967,1225182627,0.2031,1.1938,0.2671,44.57,50.12,55.18
968,1225187630,0.1982,1.2036,0.2661,49.21,50.30,56.46
969,1225192714,0.1724,1.2007,0.2656,53.60,50.61,58.05
970,1225197630,0.1436,1.2070,0.2651,57.44,51.28,59.88
971,1225202629,0.1211,1.2109,0.2627,60.12,51.89,62.07
972,1225207629,0.1079,1.2168,0.2603,61.52,52.68,64.45
973,1225212627,0.0913,1.2178,0.2568,61.52,53.72,66.89
974,1225217629,0.0752,1.2300,0.2549,59.76,54.88,69.45
975,1225222629,0.0518,1.2534,0.2417,56.52,56.04,71.71
976,1225227628,0.0469,1.2729,0.2476,51.71,57.26,73.66
977,1225232629,0.0381,1.2817,0.2500,45.24,58.54,75.43
978,1225237628,0.0254,1.2881,0.2349,37.50,59.70,77.20
979,1225242629,0.0352,1.3032,0.2241,29.09,60.85,78.72
980,1225247628,0.0630,1.3120,0.2280,21.04,61.83,80.06
981,1225252629,0.0889,1.3198,0.2305,14.21,62.68,81.46
982,1225257628,0.1064,1.3174,0.2295,9.51,63.54,82.80
983,1225262629,0.1328,1.3198,0.2202,6.95,64.39,84.27
984,1225267628,0.1514,1.3188,0.2168,6.95,64.82,85.43
985,1225272629,0.1636,1.3076,0.1992,8.90,65.37,87.26
986,1225277629,0.1641,1.2998,0.1938,12.62,65.73,88.84
987,1225282629,0.1655,1.2954,0.1777,17.56,66.04,90.91
988,1225287628,0.1606,1.2993,0.1719,22.99,66.40,93.05
989,1225292627,0.1636,1.3101,0.1548,28.35,66.89,95.24
990,1225297652,0.1323,1.3179,0.1519,32.80,67.13,97.44
991,1225302628,0.0918,1.3306,0.1392,36.04,67.68,99.63
992,1225307629,0.0615,1.3457,0.1265,38.23,68.05,101.59
993,1225312627,0.0405,1.3618,0.1348,39.21,68.66,103.29
994,1225317627,0.0015,1.3721,0.1416,39.27,69.45,104.70
995,1225322629,-0.0381,1.3784,0.1396,38.29,70.49,105.91
996,1225327629,-0.0620,1.3657,0.1401,36.04,71.40,106.83
997,1225332629,-0.0806,1.3530,0.1387,32.68,72.32,107.74
998,1225337629,-0.0884,1.3369,0.1382,28.35,73.35,108.41
999,1225342629,-0.0991,1.3174,0.1357,23.66,74.02,109.21
1000,1225347629,-0.1025,1.2900,0.1362,19.21,74.51,109.82
1001,1225352629,-0.0854,1.2578,0.1426,15.43,75.06,110.30
1002,1225357629,-0.0698,1.2285,0.1460,12.68,75.24,110.73
1003,1225362805,-0.0474,1.1924,0.1543,11.22,75.55,110.98
1004,1225367629,-0.0186,1.1543,0.1543,10.79,75.73,110.98
1005,1225372629,0.0127,1.1226,0.1665,11.28,75.55,110.73
1006,1225377629,0.0376,1.0859,0.1689,12.50,75.30,110.43
1007,1225382629,0.0547,1.0513,0.1719,13.96,75.00,109.82
1008,1225387628,0.0684,1.0254,0.1694,15.79,74.57,109.02
1009,1225392629,0.0811,0.9985,0.1743,17.56,73.96,107.87
1010,1225397628,0.0996,0.9819,0.1763,19.76,73.17,106.16
1011,1225402627,0.1196,0.9624,0.1714,21.71,72.32,104.15
1012,1225407629,0.1240,0.9541,0.1777,23.78,71.40,101.52
1013,1225412668,0.1138,0.9292,0.1743,25.79,70.61,98.66
1014,1225417629,0.1157,0.9023,0.1758,27.62,69.70,95.43
1015,1225422629,0.1177,0.8765,0.1753,29.21,68.66,92.07
1016,1225427629,0.1143,0.8521,0.1763,30.91,67.80,88.17
1017,1225432629,0.1055,0.8320,0.1807,32.32,66.77,85.18
1018,1225437629,0.0996,0.8096,0.1787,33.90,65.61,81.59
1019,1225442629,0.0864,0.7944,0.1768,35.61,64.57,77.80
1020,1225447629,0.0781,0.7759,0.1826,37.56,63.29,74.02
1021,1225452627,0.0737,0.7480,0.1831,39.70,62.38,70.49
1022,1225457628,0.0630,0.7202,0.1768,41.83,61.16,67.20
1023,1225462675,0.0454,0.6948,0.1724,43.90,60.06,64.15
1024,1225467629,0.0264,0.6626,0.1670,45.98,58.84,61.22
1025,1225472629,0.0127,0.6392,0.1655,47.99,57.87,58.60
1026,1225477628,0.0024,0.6060,0.1641,49.88,56.77,56.10
1027,1225482629,-0.0020,0.5820,0.1562,52.13,55.55,53.84
1028,1225487628,-0.0054,0.5586,0.1533,54.57,54.27,51.46
