# skilleye imu stream v1
# device=xiao_esp32c6 imu=mpu6050 addr=0x68
# rate_hz=200 accel_range_g=16 gyro_range_dps=2000 dlpf_hz=94
# units: accel in g, gyro in deg/s, t_us in microseconds since boot (monotonic)
# no shared clock with the camera -- tap the racket once before each take
# so both recordings share a spike to align on
seq,t_us,ax,ay,az,gx,gy,gz
0,1066637628,0.4331,-0.9307,-0.2168,-71.71,-19.02,-46.40
1,1066642633,0.4644,-0.8696,-0.2109,-71.16,-15.55,-50.43
2,1066647628,0.5024,-0.8022,-0.2480,-70.12,-11.95,-53.78
3,1066652629,0.5488,-0.7402,-0.2754,-69.21,-8.41,-56.46
4,1066657629,0.5669,-0.6587,-0.2632,-69.39,-4.88,-58.72
5,1066662629,0.5371,-0.5854,-0.2441,-70.85,-0.73,-60.61
6,1066667628,0.5034,-0.5347,-0.2305,-73.54,3.84,-62.20
7,1066672627,0.4790,-0.4800,-0.2422,-76.95,8.84,-63.17
8,1066677627,0.4731,-0.4175,-0.2065,-80.55,13.90,-63.84
9,1066682627,0.4727,-0.3794,-0.2144,-83.48,19.21,-64.15
10,1066687629,0.4800,-0.3799,-0.2515,-85.00,24.09,-63.60
11,1066692629,0.4878,-0.4385,-0.3105,-84.51,28.05,-61.71
12,1066697627,0.5034,-0.4224,-0.4312,-81.16,29.70,-58.05
13,1066702627,0.5786,-0.4370,-0.4321,-74.21,30.00,-53.60
14,1066707627,0.7310,-0.3511,-0.5864,-62.87,28.05,-49.02
15,1066712629,0.6338,-0.4883,-0.2715,-47.01,26.46,-44.63
16,1066717629,0.5977,-0.6553,-0.2456,-30.73,27.26,-38.48
17,1066722629,0.5957,-0.6963,0.0947,-14.02,31.95,-29.88
18,1066727629,0.6123,-0.6343,0.3730,4.15,41.83,-20.06
19,1066732628,0.7700,-0.4849,-0.0786,26.34,50.55,-10.79
20,1066737629,1.0000,-0.4585,-0.2739,51.89,54.88,-1.77
21,1066742627,1.1353,-0.7656,0.0332,78.60,60.12,10.18
22,1066747627,1.0840,-0.4326,-0.3813,105.61,62.74,22.50
23,1066752629,0.9731,-0.3066,-0.4404,131.83,61.52,33.17
24,1066757629,0.8296,-0.2354,-0.1416,156.71,62.68,42.68
25,1066762629,0.7622,-0.2051,-0.0967,178.48,65.12,51.16
26,1066767627,0.7900,-0.4165,-0.3550,195.49,65.49,59.94
27,1066772629,0.8823,-0.6240,-0.3564,207.38,64.63,71.46
28,1066777628,0.8862,-0.2969,0.0469,215.24,66.52,82.01
29,1066782629,0.8057,-0.2705,-0.2104,218.90,68.90,88.29
30,1066787629,0.7124,-0.1924,-0.0532,217.99,71.28,94.70
31,1066792629,0.6245,-0.1396,0.0464,213.48,75.06,98.41
32,1066797628,0.5283,-0.1436,-0.0347,206.10,78.66,100.00
33,1066802627,0.4360,-0.1592,-0.0229,196.16,81.40,100.00
34,1066807627,0.3862,-0.2300,0.0547,184.09,84.51,99.09
35,1066812627,0.3760,-0.3438,0.0425,170.49,86.34,98.11
36,1066817629,0.4033,-0.4365,0.0303,156.52,86.89,97.32
37,1066822629,0.4810,-0.5371,0.0518,142.80,89.09,96.40
38,1066827629,0.5435,-0.6313,0.0645,129.63,90.06,95.43
39,1066832627,0.5420,-0.7314,0.0723,116.89,90.37,94.02
40,1066837627,0.4780,-0.8296,0.1069,103.78,90.06,92.01
41,1066842629,0.3823,-0.9155,0.1494,90.55,89.39,89.39
42,1066847628,0.3032,-1.0020,0.1860,77.26,88.29,85.61
43,1066852629,0.2593,-1.0806,0.2183,64.45,85.55,80.37
44,1066857629,0.2495,-1.1636,0.2593,52.99,84.88,74.82
45,1066862627,0.2461,-1.2373,0.2793,43.41,82.07,68.78
46,1066867627,0.2529,-1.3047,0.3062,35.91,78.84,62.56
47,1066872627,0.2734,-1.3501,0.3398,30.00,75.49,56.34
48,1066877627,0.3091,-1.3877,0.3691,26.10,72.01,50.30
49,1066882627,0.3584,-1.4087,0.3936,24.15,68.41,44.21
50,1066887627,0.4097,-1.4258,0.4160,24.76,64.63,38.23
51,1066892627,0.4497,-1.4346,0.4355,28.11,60.91,32.50
52,1066897627,0.4863,-1.4355,0.4482,33.78,57.26,27.13
53,1066902627,0.5229,-1.4395,0.4673,41.10,53.60,21.89
54,1066907627,0.5435,-1.4341,0.4790,49.02,50.00,16.77
55,1066912627,0.5576,-1.4253,0.4854,56.46,46.65,11.89
56,1066917627,0.5908,-1.4116,0.4990,62.56,43.35,7.13
57,1066922627,0.6274,-1.3911,0.5103,66.77,40.24,2.32
58,1066927627,0.6431,-1.3843,0.5122,68.35,37.44,-2.32
59,1066932679,0.6387,-1.3774,0.5156,67.32,34.63,-7.01
60,1066937632,0.6255,-1.3608,0.5146,63.23,31.83,-11.65
61,1066942628,0.6250,-1.3408,0.5103,56.10,29.02,-16.16
62,1066947629,0.6338,-1.3130,0.5034,46.22,26.04,-20.55
63,1066952627,0.6362,-1.2798,0.5059,34.09,23.48,-24.88
64,1066957627,0.6255,-1.2568,0.5005,20.55,20.98,-29.02
65,1066962627,0.5977,-1.2319,0.4990,6.40,18.72,-32.74
66,1066967627,0.5811,-1.1914,0.4937,-6.52,16.65,-36.10
67,1066972627,0.5913,-1.1558,0.4839,-17.13,14.63,-39.02
68,1066977627,0.5957,-1.1191,0.4766,-24.15,12.80,-41.59
69,1066982627,0.6021,-1.0796,0.4634,-27.13,11.10,-43.60
70,1066987629,0.6030,-1.0488,0.4512,-26.46,9.33,-45.30
71,1066992629,0.6045,-1.0142,0.4429,-22.56,7.80,-46.34
72,1066997629,0.6152,-0.9800,0.4331,-16.04,6.28,-47.07
73,1067002627,0.6265,-0.9458,0.4189,-7.99,5.06,-47.56
74,1067007627,0.6323,-0.9062,0.4004,1.04,3.84,-47.74
75,1067012629,0.6230,-0.8765,0.3975,10.55,2.68,-47.62
76,1067017935,0.6191,-0.8379,0.3853,19.45,1.65,-47.44
77,1067022630,0.6196,-0.7998,0.3687,27.87,0.79,-46.89
78,1067027628,0.6143,-0.7642,0.3618,35.18,0.12,-46.22
79,1067032629,0.6045,-0.7324,0.3438,41.10,-0.61,-45.43
80,1067037627,0.6138,-0.6938,0.3335,45.24,-1.04,-44.33
81,1067042629,0.6191,-0.6611,0.3140,47.01,-1.59,-43.11
82,1067047629,0.6152,-0.6426,0.3091,46.28,-1.83,-41.65
83,1067052628,0.6069,-0.6284,0.3120,43.05,-1.89,-40.18
84,1067057790,0.6064,-0.6060,0.3086,37.74,-2.01,-38.60
85,1067062630,0.5928,-0.5864,0.3042,31.04,-2.13,-37.07
86,1067067643,0.5786,-0.5742,0.3149,23.60,-2.01,-35.55
87,1067072629,0.5674,-0.5581,0.3130,16.10,-1.95,-33.96
88,1067077627,0.5718,-0.5493,0.3037,9.51,-1.77,-32.32
89,1067082629,0.5762,-0.5420,0.3105,4.21,-1.77,-30.49
90,1067087629,0.5713,-0.5308,0.3071,0.37,-1.46,-28.23
91,1067092628,0.5728,-0.5200,0.3120,-2.01,-1.22,-26.04
92,1067097629,0.5801,-0.5078,0.3110,-2.93,-0.85,-23.54
93,1067102627,0.5840,-0.4961,0.3115,-2.80,-0.49,-20.91
94,1067107629,0.5845,-0.4858,0.3135,-1.52,0.12,-18.11
95,1067112628,0.5854,-0.4819,0.3184,0.61,0.91,-15.12
96,1067117627,0.5938,-0.4741,0.3174,3.78,1.59,-12.01
97,1067122629,0.6030,-0.4751,0.3174,7.93,2.50,-8.72
98,1067127631,0.6045,-0.4761,0.3198,12.74,3.11,-5.43
99,1067132628,0.6045,-0.4917,0.3184,17.99,4.02,-1.95
100,1067137629,0.5996,-0.4966,0.3198,22.93,4.82,1.40
101,1067142627,0.5894,-0.5132,0.3198,27.38,5.49,4.70
102,1067148143,0.5776,-0.5195,0.3228,30.49,6.04,7.87
103,1067152629,0.5698,-0.5366,0.3223,32.01,6.46,10.61
104,1067157629,0.5645,-0.5513,0.3306,31.71,6.95,13.17
105,1067162629,0.5542,-0.5718,0.3398,29.51,7.44,15.43
106,1067167627,0.5308,-0.5830,0.3384,25.79,7.62,17.32
107,1067172628,0.5083,-0.5977,0.3462,20.98,7.87,18.84
108,1067177629,0.4985,-0.6108,0.3506,15.18,8.11,20.24
109,1067182627,0.4951,-0.6201,0.3521,9.21,8.11,21.22
110,1067187627,0.4878,-0.6392,0.3584,3.29,8.11,22.01
111,1067192628,0.4878,-0.6509,0.3604,-1.95,8.05,22.74
112,1067197629,0.4966,-0.6611,0.3618,-6.46,7.74,23.48
113,1067202629,0.5039,-0.6831,0.3682,-10.06,7.50,24.21
114,1067207629,0.5024,-0.6929,0.3726,-12.68,7.07,24.94
115,1067212627,0.4946,-0.7109,0.3823,-14.57,6.65,25.49
116,1067217629,0.4888,-0.7280,0.3901,-15.49,6.16,26.04
117,1067222628,0.4878,-0.7422,0.3911,-15.49,5.85,26.40
118,1067227629,0.4946,-0.7505,0.4048,-14.63,5.55,26.59
119,1067232627,0.4976,-0.7700,0.4053,-12.80,5.06,26.65
120,1067237629,0.4951,-0.7944,0.4033,-10.43,4.76,26.77
121,1067242628,0.4819,-0.8047,0.4102,-7.87,4.33,26.65
122,1067247629,0.4668,-0.8179,0.4160,-5.49,3.84,26.40
123,1067252630,0.4653,-0.8340,0.4297,-3.11,3.78,26.04
124,1067257629,0.4634,-0.8379,0.4297,-0.85,3.48,25.55
125,1067262629,0.4634,-0.8394,0.4395,1.59,3.29,25.00
126,1067267628,0.4648,-0.8496,0.4409,4.70,3.35,24.51
127,1067272630,0.4839,-0.8560,0.4365,8.78,3.11,23.96
128,1067277627,0.5020,-0.8623,0.4487,13.78,2.99,23.54
129,1067282629,0.5190,-0.8931,0.4482,19.39,2.99,23.05
130,1067287629,0.5132,-0.9009,0.4375,25.06,2.80,22.68
131,1067292627,0.5112,-0.9131,0.4536,29.88,2.62,21.95
132,1067297627,0.5200,-0.9272,0.4556,33.35,2.44,21.04
133,1067302627,0.5024,-0.9438,0.4614,35.12,2.20,19.63
134,1067307627,0.4780,-0.9697,0.4722,35.06,1.95,18.05
135,1067312627,0.4502,-0.9746,0.4731,32.87,1.83,15.98
136,1067317629,0.4390,-0.9912,0.4819,29.15,1.46,13.60
137,1067322629,0.4331,-0.9814,0.4863,24.33,1.16,11.10
138,1067327627,0.4365,-0.9854,0.4858,19.27,0.91,8.23
139,1067332629,0.4390,-0.9893,0.4858,14.45,0.49,5.24
140,1067337630,0.4419,-0.9907,0.4878,10.55,0.00,2.44
141,1067342628,0.4414,-0.9878,0.4834,7.56,-0.43,-0.37
142,1067347629,0.4438,-0.9766,0.4834,5.85,-0.79,-2.99
143,1067352627,0.4478,-0.9629,0.4834,5.55,-1.22,-5.55
144,1067357630,0.4561,-0.9531,0.4741,6.77,-1.52,-7.93
145,1067362628,0.4756,-0.9404,0.4688,9.02,-1.89,-10.18
146,1067367627,0.4854,-0.9282,0.4766,12.62,-2.13,-12.13
147,1067372629,0.4863,-0.9170,0.4624,16.83,-2.38,-13.96
148,1067377629,0.4941,-0.9102,0.4644,21.22,-2.68,-15.61
149,1067382627,0.5186,-0.9053,0.4736,25.43,-2.93,-17.20
150,1067387627,0.5337,-0.8994,0.4580,29.21,-3.17,-18.60
151,1067392627,0.5371,-0.9028,0.4468,32.20,-3.60,-19.70
152,1067397629,0.5186,-0.8999,0.4399,34.27,-3.90,-20.79
153,1067402630,0.5225,-0.8892,0.4473,35.06,-4.57,-21.59
154,1067407627,0.5337,-0.8809,0.4277,34.70,-5.00,-22.32
155,1067412627,0.5430,-0.8599,0.4243,32.87,-5.55,-23.05
156,1067417627,0.5488,-0.8359,0.4312,30.18,-6.10,-23.66
157,1067422629,0.5537,-0.8003,0.4302,26.77,-6.40,-24.27
158,1067427630,0.5576,-0.8315,0.4126,23.84,-6.59,-24.76
159,1067432627,0.5610,-0.7993,0.4160,21.28,-6.83,-25.18
160,1067437629,0.5527,-0.7749,0.4102,19.21,-6.89,-25.49
161,1067442628,0.5620,-0.7314,0.4121,17.99,-6.77,-25.61
162,1067447629,0.5444,-0.7178,0.4082,18.11,-6.77,-25.67
163,1067452627,0.5781,-0.8130,0.3745,20.00,-6.40,-25.24
164,1067457627,0.6294,-0.7114,0.3989,22.26,-6.28,-24.15
165,1067462629,0.6431,-0.6509,0.3730,25.06,-6.04,-23.35
166,1067467628,0.6567,-0.6543,0.3853,28.17,-5.49,-22.44
167,1067472627,0.6709,-0.6875,0.3755,31.28,-5.12,-21.28
168,1067477627,0.6704,-0.6875,0.3594,33.96,-4.51,-19.76
169,1067482629,0.6445,-0.6577,0.3672,35.85,-3.84,-18.29
170,1067487631,0.6489,-0.6206,0.3516,37.74,-3.23,-16.95
171,1067492628,0.6934,-0.6509,0.3721,38.54,-2.44,-15.24
172,1067497627,0.7026,-0.6323,0.3501,37.99,-1.65,-13.29
173,1067502630,0.7051,-0.6162,0.3550,36.28,-0.85,-11.46
174,1067507816,0.7095,-0.6201,0.3677,33.48,0.43,-9.82
175,1067512629,0.6997,-0.6064,0.3599,29.63,1.52,-7.99
176,1067517628,0.6978,-0.5972,0.3442,25.12,2.68,-6.28
177,1067522627,0.6973,-0.5981,0.3525,20.00,3.66,-4.57
178,1067527627,0.6909,-0.6074,0.3564,14.63,4.57,-2.87
179,1067532628,0.6846,-0.6089,0.3413,9.45,5.49,-1.16
180,1067537629,0.6836,-0.6089,0.3389,4.70,6.22,0.73
181,1067542629,0.6836,-0.6138,0.3501,0.49,6.83,2.44
182,1067547631,0.6904,-0.6250,0.3521,-2.80,7.26,4.27
183,1067552628,0.6953,-0.6318,0.3574,-5.24,7.56,6.34
184,1067557627,0.6973,-0.6294,0.3535,-6.77,7.68,8.35
185,1067562629,0.7017,-0.6313,0.3633,-7.62,7.44,10.18
186,1067567627,0.6899,-0.6367,0.3804,-7.74,7.44,11.89
187,1067572627,0.6846,-0.6567,0.3882,-6.95,7.26,13.35
188,1067577629,0.6768,-0.6729,0.3921,-5.37,7.07,15.00
189,1067582629,0.6812,-0.7002,0.3926,-2.74,7.01,16.28
190,1067587684,0.6841,-0.7349,0.4004,0.61,6.52,17.44
191,1067592627,0.6870,-0.7681,0.4102,4.09,5.85,18.72
192,1067597627,0.7041,-0.8110,0.4219,7.93,4.94,19.45
193,1067602630,0.7129,-0.8364,0.4341,10.12,4.15,19.70
194,1067607628,0.7021,-0.8770,0.4575,11.71,3.29,19.33
195,1067612627,0.7041,-0.9346,0.4741,11.89,2.50,18.23
196,1067617766,0.7026,-0.9810,0.4985,10.37,1.40,16.65
197,1067622629,0.6807,-1.0259,0.5190,7.13,0.12,14.27
198,1067627629,0.6436,-1.0864,0.5415,2.26,-0.98,10.98
199,1067632629,0.6182,-1.1387,0.5688,-3.96,-2.07,7.07
200,1067637627,0.6206,-1.1836,0.5859,-10.30,-3.17,2.50
201,1067642627,0.6338,-1.2310,0.6079,-16.16,-4.33,-2.44
202,1067647828,0.6543,-1.2715,0.6123,-20.79,-5.37,-7.87
203,1067652629,0.6616,-1.3062,0.6226,-23.48,-6.52,-13.66
204,1067657629,0.6709,-1.3364,0.6338,-24.15,-7.80,-19.57
205,1067662627,0.6753,-1.3662,0.6440,-22.93,-9.15,-25.79
206,1067667630,0.6816,-1.3872,0.6582,-19.82,-10.37,-32.13
207,1067672628,0.6870,-1.4072,0.6592,-15.30,-11.65,-38.66
208,1067677629,0.6851,-1.4194,0.6694,-9.88,-13.23,-45.43
209,1067682629,0.6880,-1.4302,0.6738,-4.02,-14.39,-52.26
210,1067687629,0.6938,-1.4375,0.6772,1.59,-15.67,-59.02
211,1067692628,0.6948,-1.4341,0.6768,6.71,-16.95,-66.04
212,1067697993,0.6953,-1.4263,0.6821,11.04,-18.23,-72.99
213,1067702629,0.6987,-1.4204,0.6777,14.39,-19.63,-79.94
214,1067707779,0.6963,-1.3979,0.6729,17.20,-20.79,-86.83
215,1067712629,0.6992,-1.3828,0.6719,19.51,-22.07,-93.60
216,1067717628,0.7061,-1.3623,0.6689,21.40,-23.29,-100.06
217,1067722627,0.7095,-1.3345,0.6626,22.93,-24.45,-106.16
218,1067727663,0.7046,-1.3022,0.6499,24.02,-25.55,-112.13
219,1067732630,0.7051,-1.2686,0.6440,24.63,-26.59,-117.74
220,1067737627,0.7153,-1.2280,0.6357,25.12,-27.56,-123.11
221,1067742647,0.7261,-1.1934,0.6313,25.49,-28.54,-128.11
222,1067747629,0.7310,-1.1572,0.6118,25.98,-29.45,-132.62
223,1067752759,0.7188,-1.1157,0.6040,26.77,-30.30,-137.01
224,1067757629,0.7188,-1.0757,0.5923,27.93,-31.16,-140.85
225,1067762627,0.7227,-1.0308,0.5869,29.33,-32.07,-144.45
226,1067767630,0.7334,-0.9780,0.5645,31.22,-32.99,-147.56
227,1067772684,0.7339,-0.9351,0.5454,33.17,-33.96,-150.30
228,1067777629,0.7236,-0.8926,0.5312,35.06,-34.94,-152.68
229,1067782629,0.7227,-0.8452,0.5103,36.46,-35.91,-154.57
230,1067787629,0.7275,-0.8022,0.4907,36.95,-37.07,-156.04
231,1067792628,0.7515,-0.7563,0.4746,36.34,-38.11,-157.07
232,1067797629,0.7690,-0.7153,0.4580,34.39,-39.21,-157.93
233,1067802627,0.7656,-0.6685,0.4453,30.55,-40.12,-158.60
234,1067807627,0.7607,-0.6328,0.4326,25.30,-41.04,-158.96
235,1067812627,0.7646,-0.5962,0.4243,19.02,-41.65,-159.27
236,1067817629,0.7822,-0.5645,0.4106,11.71,-42.26,-159.21
237,1067822629,0.7871,-0.5283,0.3965,3.96,-42.62,-159.09
238,1067827629,0.7612,-0.4941,0.3940,-3.84,-42.99,-158.78
239,1067832628,0.7305,-0.4629,0.3823,-11.10,-43.23,-158.48
240,1067837627,0.7192,-0.4292,0.3794,-17.44,-43.11,-157.87
241,1067842627,0.7236,-0.3984,0.3716,-22.38,-42.68,-157.13
242,1067847629,0.7231,-0.3721,0.3672,-25.73,-42.50,-156.04
243,1067852627,0.7129,-0.3477,0.3638,-27.13,-42.01,-154.57
244,1067857627,0.7046,-0.3091,0.3569,-26.71,-41.46,-153.05
245,1067862627,0.7148,-0.2822,0.3491,-24.33,-40.85,-151.34
246,1067867628,0.7383,-0.2612,0.3447,-20.24,-40.24,-149.15
247,1067872629,0.7397,-0.2471,0.3379,-14.82,-39.88,-146.77
248,1067877697,0.7363,-0.2134,0.3237,-8.90,-39.57,-144.21
249,1067882629,0.7124,-0.1792,0.3218,-3.11,-39.33,-141.46
250,1067887629,0.6938,-0.1455,0.3340,1.95,-39.09,-138.84
251,1067892627,0.6768,-0.1172,0.3340,6.40,-38.78,-136.10
252,1067897628,0.6626,-0.0879,0.3398,9.88,-38.17,-133.23
253,1067902629,0.6572,-0.0605,0.3315,12.62,-37.87,-130.37
254,1067907627,0.6460,-0.0366,0.3257,14.27,-37.38,-127.20
255,1067912629,0.6206,0.0034,0.3223,15.24,-37.13,-124.02
256,1067917628,0.5938,0.0361,0.3184,15.30,-36.71,-120.73
257,1067922627,0.5864,0.0674,0.3208,14.82,-36.22,-117.56
258,1067927629,0.5713,0.0928,0.3159,14.21,-35.79,-114.21
259,1067932627,0.5649,0.1011,0.3047,14.09,-35.37,-110.55
260,1067937627,0.5625,0.1172,0.3081,14.27,-34.88,-106.65
261,1067942627,0.5459,0.1519,0.2935,14.76,-34.45,-102.44
262,1067947629,0.5332,0.1802,0.2925,15.49,-34.02,-98.23
263,1067952629,0.5337,0.2119,0.2920,16.52,-33.41,-93.78
264,1067957629,0.5508,0.2354,0.2832,17.87,-32.93,-89.15
265,1067962629,0.5693,0.2529,0.2759,19.51,-32.26,-84.21
266,1067967627,0.5815,0.2759,0.2681,21.22,-31.52,-78.90
267,1067972630,0.5913,0.3032,0.2607,22.93,-31.04,-73.29
268,1067977627,0.5874,0.3345,0.2544,24.09,-30.43,-67.50
269,1067982629,0.5879,0.3623,0.2603,24.76,-29.57,-61.65
270,1067987628,0.6006,0.3896,0.2529,25.00,-28.54,-55.49
271,1067992628,0.6133,0.4180,0.2510,24.94,-27.20,-49.21
272,1067997630,0.6182,0.4482,0.2471,24.70,-25.91,-42.74
273,1068002629,0.6284,0.4614,0.2373,24.57,-24.57,-35.85
274,1068007629,0.6494,0.4795,0.2417,24.88,-23.17,-28.60
275,1068012627,0.6802,0.4712,0.2393,26.22,-21.52,-21.10
276,1068017627,0.7207,0.4595,0.2202,28.11,-20.24,-13.11
277,1068022627,0.7520,0.4414,0.2124,30.55,-18.90,-4.63
278,1068027627,0.7607,0.4263,0.2119,32.68,-17.80,3.78
279,1068032629,0.7378,0.4219,0.2056,33.96,-16.89,11.95
280,1068037628,0.7090,0.4199,0.2153,33.72,-15.85,19.45
281,1068042629,0.6880,0.4033,0.2168,32.13,-14.88,26.34
282,1068047629,0.6855,0.3818,0.2144,29.33,-14.02,32.74
283,1068052627,0.6904,0.3574,0.2178,25.49,-13.11,39.02
284,1068057629,0.6899,0.3403,0.2178,21.04,-12.44,44.82
285,1068062629,0.6831,0.3237,0.2163,16.83,-11.52,50.37
286,1068067629,0.6860,0.3042,0.2168,13.60,-10.85,55.73
287,1068072627,0.6934,0.2739,0.2104,11.52,-10.24,60.91
288,1068077628,0.7178,0.2393,0.2124,10.67,-9.76,66.04
289,1068082627,0.7334,0.1958,0.2090,10.61,-9.27,71.40
290,1068087627,0.7588,0.1465,0.2212,10.43,-9.15,76.52
291,1068092627,0.7588,0.1191,0.2324,9.63,-9.09,81.40
292,1068097627,0.7563,0.0728,0.2568,7.99,-8.84,85.67
293,1068102627,0.7368,0.0366,0.2769,6.10,-8.84,88.23
294,1068107627,0.7124,-0.0049,0.3022,4.70,-8.72,90.61
295,1068112627,0.7090,-0.0591,0.3091,4.27,-8.66,92.20
296,1068117627,0.7231,-0.1128,0.3296,5.12,-8.54,93.29
297,1068122631,0.7446,-0.1646,0.3384,7.62,-8.35,94.09
298,1068127629,0.7520,-0.2148,0.3408,11.52,-8.35,94.70
299,1068132630,0.7446,-0.2485,0.3501,16.46,-8.54,94.94
300,1068137629,0.7451,-0.2720,0.3555,22.20,-8.48,94.76
301,1068142628,0.7407,-0.3042,0.3579,27.93,-8.54,94.51
302,1068147629,0.7500,-0.3218,0.3643,33.23,-8.29,94.09
303,1068152629,0.7900,-0.3623,0.3589,37.74,-8.41,93.60
304,1068157628,0.8330,-0.3892,0.3574,40.61,-8.78,93.17
305,1068162629,0.8506,-0.4170,0.3638,41.52,-9.15,92.68
306,1068167627,0.8677,-0.4521,0.3726,40.30,-9.76,91.77
307,1068172627,0.8779,-0.4883,0.3755,36.71,-10.61,90.30
308,1068177628,0.8877,-0.5273,0.3916,31.46,-11.28,87.74
309,1068182627,0.9023,-0.5713,0.3955,25.18,-12.01,85.73
310,1068187627,0.9058,-0.6182,0.3994,18.17,-12.93,82.87
311,1068192630,0.9233,-0.6631,0.4053,11.34,-13.96,79.45
312,1068197631,0.9360,-0.7036,0.4131,5.18,-15.00,75.67
313,1068202627,0.9561,-0.7412,0.4160,-0.12,-15.91,71.52
314,1068207627,0.9736,-0.7817,0.4136,-4.21,-16.77,66.95
315,1068212629,0.9956,-0.8145,0.4263,-6.95,-17.87,62.20
316,1068217629,1.0044,-0.8477,0.4170,-8.29,-19.02,57.32
317,1068222627,1.0020,-0.8818,0.4243,-8.41,-19.94,51.95
318,1068227627,1.0088,-0.9175,0.4312,-7.62,-20.85,46.46
319,1068232627,1.0171,-0.9468,0.4263,-6.04,-21.95,40.61
320,1068237627,1.0073,-0.9751,0.4268,-4.51,-23.05,34.51
321,1068242627,1.0117,-1.0049,0.4229,-3.29,-24.15,28.29
322,1068247627,1.0205,-1.0239,0.4253,-2.99,-25.30,21.59
323,1068252627,1.0054,-1.0405,0.4194,-3.66,-26.22,14.57
324,1068257629,0.9932,-1.0557,0.4072,-5.37,-27.13,7.20
325,1068262629,0.9810,-1.0679,0.3989,-8.05,-27.80,-0.24
326,1068267629,0.9785,-1.0601,0.3760,-11.16,-28.66,-7.80
327,1068272629,0.9624,-1.0493,0.3716,-14.57,-28.96,-15.49
328,1068277627,0.9531,-1.0278,0.3467,-17.62,-29.15,-23.29
329,1068282630,0.9517,-1.0068,0.3276,-20.12,-29.15,-30.73
330,1068287628,0.9380,-0.9766,0.3096,-21.22,-28.66,-37.93
331,1068292629,0.9292,-0.9453,0.2954,-20.24,-28.17,-44.82
332,1068297629,0.9458,-0.9048,0.2676,-17.50,-27.32,-51.10
333,1068302629,0.9536,-0.8677,0.2500,-13.41,-26.40,-57.01
334,1068307628,0.9526,-0.8169,0.2305,-8.23,-25.24,-62.44
335,1068312629,0.9595,-0.7710,0.2178,-2.62,-24.02,-67.20
336,1068317629,0.9668,-0.7212,0.2021,2.74,-22.56,-71.46
337,1068322629,0.9678,-0.6646,0.1831,7.20,-21.16,-75.30
338,1068327628,0.9673,-0.6133,0.1621,10.43,-19.70,-78.54
339,1068332627,0.9546,-0.5586,0.1489,11.89,-18.23,-81.40
340,1068337627,0.9458,-0.5044,0.1470,11.77,-16.52,-83.78
341,1068342627,0.9521,-0.4463,0.1353,10.18,-14.70,-85.67
342,1068347627,0.9653,-0.3906,0.1152,7.50,-12.80,-87.01
343,1068352627,0.9546,-0.3462,0.1079,4.27,-11.10,-87.99
344,1068357629,0.9258,-0.2847,0.0986,0.85,-9.27,-88.35
345,1068362629,0.9219,-0.2246,0.0933,-1.95,-7.44,-88.23
346,1068367627,0.9497,-0.1987,0.0767,-3.66,-5.67,-87.50
347,1068372627,0.9697,-0.1587,0.0474,-4.02,-4.15,-86.16
348,1068377627,0.9497,-0.1113,0.0293,-3.23,-2.99,-84.27
349,1068382629,0.9229,-0.0693,0.0283,-1.59,-1.95,-82.07
350,1068387629,0.9170,-0.0234,0.0249,0.24,-0.91,-79.45
351,1068392629,0.9121,0.0225,0.0200,1.95,0.18,-76.59
352,1068397629,0.9004,0.0586,0.0205,3.54,1.22,-73.29
353,1068402629,0.8892,0.1069,0.0259,4.51,2.01,-69.51
354,1068407627,0.8862,0.1665,0.0288,4.45,2.68,-65.37
355,1068412629,0.8730,0.2241,0.0435,3.84,3.54,-60.98
356,1068417628,0.8535,0.2847,0.0630,2.56,4.51,-56.22
357,1068422629,0.8354,0.3374,0.0679,1.10,5.49,-51.10
358,1068427627,0.8159,0.3970,0.0859,0.61,6.40,-45.55
359,1068432627,0.7988,0.4448,0.0923,1.59,7.56,-39.39
360,1068437627,0.8018,0.4834,0.1069,4.82,8.60,-32.50
361,1068442627,0.7900,0.5293,0.1108,9.76,9.57,-25.00
362,1068447629,0.7656,0.5630,0.1182,16.83,10.43,-16.95
363,1068452628,0.7422,0.6035,0.1294,25.37,11.34,-8.41
364,1068457629,0.7358,0.6118,0.1514,34.88,12.13,0.61
365,1068462628,0.7744,0.5796,0.1797,44.09,12.87,10.37
366,1068467627,0.7964,0.5923,0.1855,51.71,13.17,20.61
367,1068472627,0.7412,0.6108,0.2114,56.22,13.23,30.55
368,1068477627,0.6709,0.6162,0.2412,56.59,13.17,40.06
369,1068482627,0.6562,0.6211,0.2773,52.93,12.99,48.90
370,1068487627,0.6543,0.6069,0.3105,46.46,12.68,57.38
371,1068492629,0.6577,0.5923,0.3281,38.78,12.26,65.73
372,1068497629,0.6484,0.5845,0.3389,31.46,11.40,74.21
373,1068502628,0.6289,0.5732,0.3364,25.79,10.12,82.74
374,1068507627,0.6182,0.5649,0.3394,21.77,8.60,90.79
375,1068512629,0.6289,0.5684,0.3452,19.57,7.01,99.27
376,1068517628,0.6411,0.5732,0.3462,18.78,5.24,107.68
377,1068522627,0.6616,0.5835,0.3345,19.27,3.66,116.52
378,1068527627,0.6821,0.5947,0.3208,20.18,2.26,125.61
379,1068532629,0.7183,0.6001,0.3105,21.16,0.91,135.18
380,1068537629,0.7612,0.5986,0.2915,21.65,-0.18,145.18
381,1068542698,0.8003,0.5913,0.2822,21.04,-0.91,155.85
382,1068547627,0.8403,0.5767,0.2734,19.21,-1.59,166.83
383,1068552629,0.8789,0.5469,0.2651,16.34,-1.89,178.23
384,1068557628,0.9121,0.5000,0.2651,12.50,-2.07,189.82
385,1068562629,0.9590,0.4277,0.2681,7.99,-1.89,201.89
386,1068567627,0.9668,0.3696,0.2632,2.80,-1.95,213.84
387,1068572627,0.9136,0.3096,0.2681,-3.29,-2.20,225.12
388,1068577627,0.8525,0.2314,0.2769,-10.18,-2.68,235.37
389,1068582629,0.8120,0.1484,0.2881,-17.74,-3.29,244.63
390,1068587668,0.7515,0.0728,0.3037,-24.76,-4.51,252.44
391,1068592628,0.6758,-0.0098,0.3115,-30.12,-5.85,258.60
392,1068597629,0.7856,-5.2222,0.3350,-34.57,-8.17,260.00
393,1068602628,0.5806,-10.7920,-0.9302,-18.72,3.72,102.62
394,1068607627,1.4214,-6.1377,-0.5400,-73.78,4.88,28.90
395,1068612629,1.5024,-3.0898,0.4766,-73.41,0.79,7.01
396,1068617628,1.0229,-0.4741,0.4277,-35.61,-0.12,-2.13
397,1068622629,1.0537,0.5693,0.1948,-2.38,-1.71,-4.33
398,1068627627,1.0986,-0.0596,0.4619,11.71,-3.66,-2.68
399,1068632629,1.0518,-0.9424,0.3652,16.52,-3.54,1.34
400,1068637628,1.0054,-0.9639,0.1348,18.17,-2.80,5.43
401,1068642629,0.9814,-0.4492,0.2710,18.41,-3.05,7.62
402,1068647629,0.9507,-0.1899,0.3203,17.07,-3.05,8.05
403,1068652629,0.9282,-0.4204,0.1982,13.05,-3.05,7.74
404,1068657629,0.9092,-0.7651,0.2490,6.59,-3.29,7.07
405,1068662629,0.8965,-0.8926,0.3247,-1.40,-3.48,5.67
406,1068667629,0.8970,-0.8208,0.2563,-9.76,-3.66,2.99
407,1068672629,0.9019,-0.7666,0.2622,-17.56,-4.27,-0.73
408,1068677628,0.8848,-0.8389,0.3301,-24.27,-5.00,-5.24
409,1068682629,0.8320,-0.9907,0.3130,-30.00,-6.16,-10.37
410,1068687628,0.7642,-1.1094,0.3276,-35.18,-7.50,-16.52
411,1068692629,0.6938,-1.1455,0.3774,-39.51,-9.02,-23.54
412,1068697628,0.6377,-1.1763,0.4072,-42.62,-10.30,-31.77
413,1068702629,0.6074,-1.2139,0.4116,-44.02,-11.59,-40.73
414,1068707629,0.5781,-1.2539,0.4302,-43.05,-12.99,-50.24
415,1068712629,0.5518,-1.3125,0.4697,-39.94,-14.09,-60.18
416,1068717658,0.5229,-1.3208,0.4678,-34.57,-15.12,-70.06
417,1068723046,0.5361,-1.3022,0.4658,-24.88,-15.85,-82.13
418,1068727630,0.5581,-1.2627,0.4775,-17.13,-16.59,-89.94
419,1068732628,0.5757,-1.2251,0.4644,-6.89,-17.44,-99.45
420,1068737629,0.5781,-1.1685,0.4614,2.74,-18.23,-108.41
421,1068742627,0.5962,-1.0903,0.4614,10.91,-18.78,-116.77
422,1068747627,0.6226,-1.0098,0.4546,17.20,-19.21,-124.45
423,1068752627,0.6543,-0.9312,0.4478,21.40,-19.57,-131.52
424,1068757628,0.6562,-0.8462,0.4292,23.78,-19.63,-137.80
425,1068762627,0.6455,-0.7573,0.4150,24.45,-19.88,-143.29
426,1068767627,0.6372,-0.6587,0.4004,23.72,-19.70,-147.93
427,1068772627,0.6587,-0.5430,0.3657,21.95,-19.51,-151.59
428,1068777627,0.6904,-0.4321,0.3389,19.02,-19.15,-154.39
429,1068782700,0.7183,-0.3218,0.3232,14.76,-18.41,-156.28
430,1068787630,0.7334,-0.2100,0.2905,9.39,-17.68,-157.07
431,1068792629,0.7441,-0.0908,0.2690,3.05,-16.52,-156.83
432,1068797628,0.7363,0.0352,0.2480,-3.84,-15.24,-155.61
433,1068802629,0.7300,0.1631,0.2202,-10.91,-13.96,-153.35
434,1068807629,0.7305,0.2925,0.1841,-17.20,-12.44,-149.82
435,1068812627,0.7178,0.4297,0.1548,-22.01,-10.91,-145.12
436,1068817627,0.7207,0.5601,0.1138,-24.63,-9.39,-139.09
437,1068822627,0.7383,0.6821,0.0894,-24.57,-7.80,-131.40
438,1068827627,0.7671,0.7959,0.0698,-21.83,-6.22,-122.01
439,1068832627,0.7993,0.9087,0.0513,-16.04,-4.94,-110.73
440,1068837631,0.8271,1.0151,0.0244,-8.05,-3.54,-97.68
441,1068842631,0.8501,1.1196,0.0112,1.40,-2.32,-83.05
442,1068847629,0.8789,1.2183,0.0020,10.98,-1.04,-67.20
443,1068852627,0.9004,1.2988,-0.0132,19.70,0.12,-50.06
444,1068857730,0.9268,1.3735,-0.0215,26.59,1.52,-32.01
445,1068862631,0.9331,1.4355,-0.0244,31.16,3.05,-13.23
446,1068867628,0.9365,1.4780,-0.0449,33.23,4.63,6.10
447,1068872627,0.9443,1.5122,-0.0493,32.56,6.40,25.98
448,1068877627,0.9326,1.5396,-0.0557,29.45,8.35,45.61
449,1068882627,0.9077,1.5449,-0.0547,24.88,10.49,65.37
450,1068887627,0.8823,1.5347,-0.0566,19.63,12.74,85.12
451,1068892629,0.8438,1.4951,-0.0669,14.94,14.82,103.90
452,1068897629,0.8042,1.4453,-0.0601,11.52,16.83,122.68
453,1068902629,0.7622,1.3887,-0.0503,9.82,18.84,140.98
454,1068907629,0.7129,1.3193,-0.0493,10.06,20.98,158.66
455,1068912628,0.6650,1.2368,-0.0278,11.89,22.99,175.79
456,1068917627,0.6118,1.1387,0.0049,15.24,24.94,192.01
457,1068922627,0.5693,1.0293,0.0117,19.70,26.89,207.56
458,1068927627,0.5405,0.9106,0.0371,25.06,28.72,222.44
459,1068932629,0.5171,0.7827,0.0640,30.61,30.55,236.34
460,1068937628,0.5005,0.6304,0.0908,35.67,32.44,249.39
461,1068942627,0.4849,0.4863,0.1143,40.12,33.96,261.52
462,1068947629,0.4697,0.3223,0.1377,43.60,35.67,272.26
463,1068952627,0.4648,0.1719,0.1646,46.10,36.95,281.52
464,1068957627,0.4282,0.0420,0.1797,47.93,37.93,288.78
465,1068962627,0.3457,-0.0996,0.2100,49.39,38.60,294.02
466,1068967627,0.5752,-14.2490,1.2944,100.73,30.12,210.49
467,1068972627,1.1245,-5.2261,0.7700,135.49,25.67,91.28
468,1068977631,1.2046,-1.4883,-0.8320,76.04,45.49,31.52
469,1068982628,1.0459,-1.9663,-0.0332,54.02,47.13,2.38
470,1068987628,0.8428,-2.6274,1.2344,61.95,38.35,-10.73
471,1068992627,0.8535,-1.6050,0.3306,72.62,37.07,-15.00
472,1068997629,0.9424,-0.2817,0.0400,61.16,37.68,-17.13
473,1069002627,0.8672,0.1562,0.7188,38.60,36.52,-19.15
474,1069007697,0.7739,-0.2134,0.4111,14.15,37.07,-20.06
475,1069012679,0.7236,-0.3320,0.1040,-12.87,37.62,-19.94
476,1069017629,0.7314,-0.7344,0.4009,-28.11,37.38,-19.21
477,1069022629,0.7358,-0.5518,0.3979,-43.29,37.07,-19.02
478,1069027629,0.7412,-0.3755,0.1372,-54.51,37.38,-19.27
479,1069032629,0.7246,-0.3960,0.3003,-62.07,36.89,-19.63
480,1069037629,0.7056,-0.5396,0.3945,-66.52,36.16,-19.82
481,1069042629,0.7168,-0.6094,0.2402,-68.41,35.91,-19.70
482,1069047629,0.7231,-0.5605,0.2695,-68.29,35.67,-19.70
483,1069052629,0.7212,-0.4956,0.3564,-66.71,35.18,-19.88
484,1069057735,0.7153,-0.4863,0.2925,-64.57,34.76,-20.00
485,1069062627,0.6816,-0.5142,0.2803,-62.56,34.33,-20.18
486,1069067629,0.6377,-0.5283,0.3560,-60.67,33.90,-20.24
487,1069072628,0.6084,-0.5112,0.3447,-58.54,33.84,-20.18
488,1069077629,0.6172,-0.4746,0.3169,-55.43,33.72,-20.24
489,1069082628,0.6450,-0.4443,0.3330,-51.22,33.48,-20.24
490,1069087629,0.6733,-0.4390,0.3389,-46.22,33.23,-20.00
491,1069092627,0.6978,-0.4175,0.3179,-40.79,32.74,-19.51
492,1069097630,0.7202,-0.3906,0.3262,-35.85,32.44,-18.90
493,1069102628,0.7412,-0.3662,0.3418,-31.71,32.26,-18.11
494,1069107629,0.7495,-0.3398,0.3379,-28.60,32.01,-17.01
495,1069112629,0.7612,-0.3101,0.3311,-27.01,31.71,-15.85
496,1069117629,0.7715,-0.2754,0.3345,-27.01,31.22,-14.51
497,1069122628,0.7915,-0.2480,0.3315,-28.41,30.85,-13.05
498,1069127630,0.8018,-0.2227,0.3237,-31.40,30.30,-11.65
499,1069132629,0.8149,-0.2075,0.3267,-35.85,29.70,-10.06
500,1069137629,0.8140,-0.1846,0.3286,-41.71,29.02,-8.41
501,1069142628,0.8154,-0.1729,0.3354,-48.78,28.29,-6.65
502,1069147629,0.8042,-0.1675,0.3613,-56.77,27.80,-4.88
503,1069152628,0.7808,-0.1553,0.3809,-64.82,27.38,-3.11
504,1069157627,0.7705,-0.1387,0.3730,-71.95,27.07,-1.22
505,1069162627,0.7695,-0.1338,0.3608,-77.56,26.34,0.55
506,1069167630,0.7739,-0.1323,0.3672,-81.71,25.30,2.44
507,1069172629,0.7842,-0.1606,0.3594,-84.70,24.33,4.70
508,1069177628,0.7896,-0.1890,0.3901,-86.40,23.23,7.44
509,1069182629,0.8066,-0.2212,0.3989,-86.40,22.38,10.91
510,1069187628,0.8511,-0.2217,0.3867,-84.33,21.40,14.63
511,1069192630,0.8936,-0.2095,0.3730,-79.82,20.12,18.29
512,1069197630,0.9185,-0.2134,0.3662,-73.54,18.66,21.77
513,1069202630,0.9414,-0.2388,0.3770,-66.46,17.01,25.18
514,1069207627,0.9438,-0.2632,0.4048,-59.63,15.49,28.35
515,1069212629,0.9424,-0.2739,0.4351,-53.48,14.27,31.59
516,1069217629,0.9355,-0.2817,0.4575,-48.41,12.87,34.33
517,1069222629,0.9116,-0.2681,0.4756,-44.51,11.65,36.71
518,1069227628,0.8789,-0.2534,0.4902,-41.52,10.49,38.54
519,1069232629,0.8560,-0.2534,0.4985,-39.33,9.33,39.70
520,1069237628,0.8481,-0.2720,0.5068,-38.05,8.17,40.30
521,1069242627,0.8472,-0.2783,0.5059,-37.74,7.13,40.98
522,1069247631,0.8667,-0.2651,0.5117,-38.17,5.61,41.40
523,1069252627,0.8667,-0.3076,0.5352,-39.70,4.57,41.59
524,1069257628,0.8750,-0.3359,0.5244,-41.34,3.48,42.01
525,1069262842,0.8779,-0.3301,0.4946,-42.68,2.20,42.50
526,1069267629,0.9253,-0.3369,0.4951,-43.72,0.67,42.74
527,1069272629,0.9756,-0.3721,0.4937,-44.70,-0.61,42.99
528,1069277628,1.0278,-0.4390,0.5068,-45.91,-2.13,43.60
529,1069282629,1.0620,-0.4980,0.5063,-47.01,-2.93,44.51
530,1069287628,1.0605,-0.5273,0.5122,-47.74,-4.21,45.30
531,1069292629,1.0352,-0.5488,0.5078,-47.74,-5.73,45.85
532,1069297628,0.9971,-0.5659,0.5234,-47.13,-7.50,45.67
533,1069302629,0.9697,-0.5889,0.5366,-46.46,-9.09,45.00
534,1069307629,0.9512,-0.6260,0.5552,-45.06,-10.61,44.02
535,1069312774,0.9380,-0.6592,0.5728,-42.87,-12.07,42.87
536,1069317628,0.9438,-0.6680,0.5698,-39.09,-13.48,41.34
537,1069322628,0.9595,-0.6685,0.5684,-33.96,-15.30,39.39
538,1069327627,0.9551,-0.6855,0.5713,-27.80,-17.01,37.26
539,1069332627,0.9458,-0.6885,0.5703,-20.79,-18.72,35.00
540,1069337627,0.9351,-0.6924,0.5654,-13.66,-20.43,32.50
541,1069342627,0.9272,-0.6997,0.5601,-6.77,-22.13,30.00
542,1069347627,0.9287,-0.7109,0.5503,-0.43,-23.84,27.56
543,1069353291,0.9419,-0.7178,0.5342,6.22,-25.67,24.70
544,1069357631,0.9502,-0.7290,0.5352,9.57,-27.07,22.93
545,1069362627,0.9521,-0.7524,0.5283,12.68,-28.60,20.73
546,1069367627,0.9565,-0.7710,0.5298,14.39,-29.94,18.35
547,1069372627,0.9429,-0.7832,0.5195,15.12,-31.34,15.67
548,1069377627,0.9175,-0.7949,0.5186,14.88,-32.99,12.62
549,1069382631,0.8892,-0.8057,0.5186,13.72,-34.76,9.27
550,1069387628,0.8848,-0.8271,0.5229,11.71,-36.83,5.73
551,1069392631,0.9082,-0.8394,0.5195,9.15,-38.84,2.20
552,1069397628,0.9258,-0.8452,0.5220,6.52,-41.04,-1.34
553,1069402629,0.9282,-0.8481,0.5181,4.15,-43.35,-4.63
554,1069407628,0.9346,-0.8379,0.5015,2.62,-45.91,-7.80
555,1069412629,0.9346,-0.8306,0.5088,1.77,-48.35,-11.10
556,1069417628,0.9248,-0.8130,0.5000,1.77,-50.91,-14.15
557,1069422627,0.9131,-0.7988,0.4907,2.80,-53.29,-17.01
558,1069427631,0.9136,-0.7759,0.4790,4.94,-55.49,-19.70
559,1069432628,0.9263,-0.7686,0.4712,7.68,-57.56,-22.01
560,1069437627,0.9399,-0.7695,0.4609,11.34,-59.15,-23.96
561,1069442627,0.9424,-0.7656,0.4424,15.37,-60.61,-25.55
562,1069447627,0.9453,-0.7642,0.4307,19.88,-61.95,-26.77
563,1069452631,0.9302,-0.7456,0.4263,24.27,-63.05,-27.99
564,1069457628,0.9224,-0.7290,0.4287,28.17,-63.66,-29.45
565,1069462627,0.9248,-0.7158,0.4238,31.46,-64.15,-30.79
566,1069467627,0.9160,-0.6973,0.4194,34.02,-64.39,-32.32
567,1069472670,0.8945,-0.6753,0.4141,35.79,-64.70,-33.90
568,1069477628,0.8672,-0.6592,0.4028,36.71,-64.88,-35.30
569,1069482672,0.8545,-0.6387,0.3970,36.77,-65.18,-36.83
570,1069487631,0.8428,-0.6206,0.3887,36.65,-65.00,-38.17
571,1069492628,0.8428,-0.6064,0.3848,36.34,-65.12,-39.21
572,1069497627,0.8447,-0.6040,0.3535,36.16,-65.12,-40.00
573,1069502630,0.8506,-0.6011,0.3462,36.40,-65.30,-40.30
574,1069507630,0.8584,-0.6001,0.2646,36.95,-65.73,-40.30
575,1069512628,0.8672,-0.6274,0.1621,38.11,-66.22,-40.06
576,1069517631,0.8730,-0.6582,0.0498,39.57,-66.77,-39.63
577,1069522898,0.8906,-0.6113,-0.0962,42.01,-67.20,-39.39
578,1069527629,0.9019,-0.5352,-0.1499,43.72,-67.07,-39.45
579,1069532628,0.8862,-0.4492,-0.1484,44.82,-66.22,-40.24
580,1069537629,0.8555,-0.4087,-0.1445,44.76,-64.82,-40.79
581,1069542627,0.8477,-0.3984,-0.1626,44.09,-63.35,-40.61
582,1069547629,0.8203,-0.4399,-0.1528,43.41,-61.65,-39.76
583,1069552628,0.8276,-0.4692,-0.0874,42.80,-59.76,-38.23
584,1069557631,0.8423,-0.5190,-0.0288,42.13,-57.68,-36.89
585,1069562629,0.8643,-0.5464,0.0479,41.40,-55.61,-35.85
586,1069567629,0.8892,-0.5547,0.1221,40.12,-53.72,-35.43
587,1069572627,0.8789,-0.5488,0.1777,37.93,-51.77,-35.55
588,1069577628,0.8145,-0.5181,0.2236,35.18,-50.06,-36.28
589,1069582629,0.8164,-0.5278,0.2500,31.71,-48.23,-37.56
590,1069587628,0.7915,-0.5669,0.3354,27.68,-46.28,-38.84
591,1069592629,0.7046,-0.6104,0.4580,24.76,-43.17,-39.94
592,1069597628,0.6157,-0.6670,0.3867,24.15,-39.94,-41.16
593,1069602629,0.5933,-0.5332,0.2397,26.77,-37.62,-42.07
594,1069607628,0.5620,-0.5464,0.3271,30.12,-36.22,-43.60
595,1069612666,0.6611,-0.5366,0.2783,33.29,-35.12,-44.63
596,1069617631,0.7676,-0.4849,0.3472,35.67,-34.15,-45.91
597,1069622627,0.7939,-0.4204,0.2476,39.76,-31.89,-47.62
598,1069627628,0.8823,-0.4048,0.2197,45.30,-31.65,-49.27
599,1069632627,0.9292,-0.3760,0.2778,50.79,-32.01,-50.85
600,1069637627,0.9189,-0.4043,0.2495,56.10,-32.01,-52.07
601,1069642629,0.8560,-0.4478,0.2710,61.52,-32.26,-52.44
602,1069647628,0.8042,-0.4956,0.3105,66.95,-32.44,-52.20
603,1069652627,0.7798,-0.5107,0.2798,72.38,-32.20,-52.13
604,1069657631,0.8042,-0.5063,0.2422,77.80,-31.40,-51.95
605,1069662628,0.8345,-0.5493,0.2231,85.30,-29.15,-50.98
606,1069667629,0.7856,-0.6177,0.4199,92.56,-25.91,-49.09
607,1069672628,0.9229,-0.4551,-0.0649,104.45,-24.39,-46.77
608,1069677629,1.0781,-0.4028,-0.1646,117.74,-24.15,-45.30
609,1069682627,1.0791,-0.3916,0.0786,132.01,-23.05,-43.23
610,1069687631,1.0493,-0.3013,0.0376,146.89,-21.28,-41.04
611,1069692628,1.0225,-0.3169,-0.0571,161.16,-19.76,-38.72
612,1069697627,0.9805,-0.3652,0.0537,173.78,-17.56,-35.85
613,1069702724,0.9595,-0.3877,0.1221,183.35,-14.94,-32.26
614,1069707629,0.9419,-0.4033,0.1079,189.02,-12.93,-28.17
615,1069712685,0.9385,-0.4092,0.0972,189.27,-10.91,-23.84
616,1069717629,0.9873,-0.3735,0.1230,183.90,-8.84,-19.82
617,1069722627,1.0669,-0.3442,0.1094,172.74,-7.50,-16.95
618,1069727630,1.1270,-0.3618,0.0967,156.46,-6.40,-15.06
619,1069732629,1.1699,-0.4082,0.1294,135.98,-5.24,-13.66
620,1069737628,1.1611,-0.4424,0.1445,114.02,-4.15,-12.50
621,1069742629,1.1538,-0.4800,0.1514,92.44,-3.23,-11.89
622,1069747628,1.1494,-0.4917,0.1245,72.87,-2.80,-11.22
623,1069752683,1.1328,-0.5352,0.1460,56.10,-2.87,-10.49
624,1069757627,1.0923,-0.5732,0.1826,40.24,-3.23,-8.96
625,1069762630,1.0327,-0.5537,0.1807,33.05,-3.66,-7.87
626,1069767629,0.9307,-0.4722,0.2085,27.56,-4.45,-7.44
627,1069772629,0.8726,-0.4707,0.2192,25.67,-4.88,-8.11
628,1069777627,0.8696,-0.4795,0.2256,26.71,-4.88,-9.63
629,1069782627,0.8877,-0.4971,0.2290,28.84,-5.24,-11.95
630,1069787627,0.8569,-0.5034,0.2461,31.22,-5.49,-14.51
631,1069792629,0.7856,-0.4878,0.2505,33.78,-5.30,-17.62
632,1069797628,0.6836,-0.4980,0.2373,36.10,-4.76,-21.16
633,1069802627,0.7612,-0.4907,0.2378,38.05,-4.02,-25.12
634,1069807629,0.7603,-0.4849,0.2412,40.00,-3.35,-29.09
635,1069812629,0.7983,-0.5059,0.2412,41.65,-2.87,-32.99
636,1069817629,0.8423,-0.5127,0.2539,41.40,-2.62,-36.77
637,1069822627,0.8574,-0.5181,0.2676,38.48,-2.20,-40.49
638,1069827627,0.8340,-0.5312,0.2671,32.93,-1.83,-44.09
639,1069832627,0.7886,-0.5386,0.2749,25.49,-1.83,-47.62
640,1069837627,0.7495,-0.5576,0.2651,17.01,-2.07,-50.79
641,1069842630,0.7495,-0.5493,0.2749,8.23,-2.74,-54.15
642,1069847629,0.7344,-0.5562,0.2993,-0.49,-3.29,-57.50
643,1069852628,0.7134,-0.5415,0.3276,-8.72,-3.78,-60.91
644,1069857627,0.7427,-0.5356,0.3350,-15.79,-4.15,-64.09
645,1069862627,0.7754,-0.5469,0.3374,-21.65,-4.33,-67.07
646,1069867629,0.8027,-0.5356,0.3374,-26.04,-4.15,-69.51
647,1069872627,0.8213,-0.5083,0.3462,-29.70,-4.02,-71.65
648,1069877627,0.8013,-0.4736,0.3442,-32.93,-3.66,-73.35
649,1069882628,0.7783,-0.4458,0.3467,-35.91,-3.05,-74.63
650,1069887627,0.8105,-0.4062,0.3716,-38.35,-2.44,-75.73
651,1069892627,0.8354,-0.3662,0.3696,-39.63,-1.40,-76.77
652,1069897631,0.8481,-0.3716,0.3096,-39.63,-0.12,-77.44
653,1069902629,0.8345,-0.3457,0.2749,-37.68,0.67,-77.93
654,1069907628,0.8340,-0.3462,0.2524,-34.76,1.34,-78.23
655,1069912627,0.8291,-0.3232,0.2363,-31.77,2.07,-78.54
656,1069917629,0.8223,-0.2915,0.2271,-28.90,2.99,-79.02
657,1069922627,0.8169,-0.2729,0.2192,-25.91,4.27,-79.51
658,1069927631,0.8345,-0.2734,0.1865,-23.05,5.85,-79.70
659,1069932629,0.8262,-0.2578,0.1753,-19.82,7.80,-79.57
660,1069937628,0.8071,-0.2148,0.1582,-16.71,9.94,-79.45
661,1069942853,0.7954,-0.1855,0.1416,-13.60,13.23,-79.02
662,1069947629,0.7959,-0.1641,0.1255,-11.40,15.91,-78.29
663,1069952629,0.7974,-0.1289,0.1343,-8.29,19.70,-77.01
664,1069957710,0.8066,-0.0879,0.1323,-4.82,24.02,-75.06
665,1069962631,0.8096,-0.0469,0.1416,-1.40,28.29,-72.32
666,1069967627,0.8252,-0.0078,0.1611,1.77,32.99,-69.15
667,1069972628,0.8516,0.0112,0.1890,4.76,37.56,-65.55
668,1069977629,0.8813,0.0161,0.2153,7.01,42.32,-61.40
669,1069982629,0.9092,0.0215,0.2510,9.09,46.71,-56.83
670,1069987629,0.9214,0.0103,0.2744,10.98,50.73,-51.95
671,1069992627,0.8975,0.0161,0.2925,12.93,54.09,-46.89
672,1069997627,0.8818,0.0269,0.3164,15.18,56.65,-42.07
673,1070002627,0.8755,0.0337,0.3633,18.54,58.72,-37.56
674,1070007629,0.8447,0.0186,0.4028,23.35,60.06,-33.60
675,1070012629,0.8267,-0.0103,0.4404,29.09,60.79,-29.88
676,1070017628,0.8374,-0.0283,0.4741,34.45,60.43,-26.22
677,1070022630,0.8188,-0.0444,0.4878,38.17,59.45,-22.99
678,1070027628,0.8125,-0.0474,0.5146,39.76,58.05,-20.30
679,1070032631,0.8354,-0.0747,0.5503,40.12,56.16,-18.23
680,1070037628,0.8408,-0.1172,0.5811,39.39,54.21,-16.22
681,1070042627,0.8511,-0.1382,0.6064,37.99,51.83,-14.21
682,1070047629,0.8789,-0.1519,0.6426,36.16,49.39,-12.13
683,1070052906,0.9121,-0.1665,0.6597,34.88,46.28,-9.57
684,1070057629,0.9307,-0.1812,0.7046,35.24,44.02,-7.56
685,1070062967,0.9302,-0.2075,0.7388,38.54,40.37,-4.63
686,1070067629,0.9463,-0.2002,0.7383,41.89,38.17,-2.62
687,1070072628,0.9731,-0.2080,0.7676,46.04,35.06,-0.24
688,1070077630,0.9976,-0.2090,0.7715,49.15,32.20,2.07
689,1070082629,1.0195,-0.2056,0.7715,50.91,29.45,4.21
690,1070087628,1.0200,-0.2109,0.7456,51.95,25.91,6.59
691,1070092629,1.0015,-0.2725,0.7656,51.77,23.41,8.66
692,1070097629,0.9907,-0.2427,0.6763,51.46,19.45,10.98
693,1070102629,0.9966,-0.2427,0.6494,52.26,15.30,13.41
694,1070107629,1.0000,-0.2334,0.6440,54.15,10.79,16.22
695,1070112629,1.0005,-0.2490,0.5923,57.01,5.79,19.51
696,1070117628,0.9907,-0.2285,0.5464,60.18,0.43,23.05
697,1070122629,0.9536,-0.2036,0.5317,61.77,-5.00,26.52
698,1070127627,0.9019,-0.1846,0.5337,61.71,-10.67,29.39
699,1070132627,0.8569,-0.1597,0.5059,60.67,-16.10,31.71
700,1070137627,0.8018,-0.1436,0.4883,60.85,-21.28,33.29
701,1070142627,0.7627,-0.1387,0.4707,63.35,-26.28,34.70
702,1070147627,0.7520,-0.1294,0.4307,67.68,-30.61,35.43
703,1070152627,0.7544,-0.1323,0.3984,73.54,-33.72,36.28
704,1070157631,0.7881,-0.1318,0.3555,79.57,-35.98,37.26
705,1070162629,0.8252,-0.1929,0.2861,83.90,-37.26,39.21
706,1070167629,0.8579,-0.0757,0.2065,87.62,-37.56,41.65
707,1070172627,0.8633,-0.1284,0.1875,91.77,-36.71,44.02
708,1070177627,0.9180,-0.1401,0.1475,96.46,-35.06,46.52
709,1070182627,0.9380,-0.1562,0.0928,101.59,-32.07,48.41
710,1070187629,0.9619,-0.2168,0.0659,106.89,-28.29,49.76
711,1070192629,0.9868,-0.2690,0.0405,110.73,-24.21,50.43
712,1070197627,0.9888,-0.2969,0.0215,111.28,-19.70,50.49
713,1070202630,0.9624,-0.3232,0.0103,109.27,-15.37,49.70
714,1070207629,0.9385,-0.3521,-0.0034,105.98,-11.04,48.41
715,1070212880,0.9233,-0.3916,-0.0122,102.26,-6.16,46.40
716,1070217629,0.9307,-0.4155,-0.0239,100.24,-2.93,45.12
717,1070222628,0.9175,-0.4297,-0.0239,98.29,0.49,43.78
718,1070227630,0.9043,-0.4492,-0.0117,97.68,3.72,42.50
719,1070232629,0.8975,-0.4536,0.0049,98.05,6.52,41.16
720,1070237629,0.9038,-0.4697,0.0405,99.02,9.02,39.45
721,1070242628,0.9062,-0.4858,0.0879,99.63,10.98,37.62
722,1070247629,0.9038,-0.5205,0.1230,98.66,12.01,35.49
723,1070252629,0.9146,-0.5391,0.1743,94.21,11.95,33.41
724,1070257629,0.9258,-0.5425,0.2236,85.85,11.34,31.28
725,1070262629,0.9243,-0.5513,0.2529,75.49,10.18,29.02
726,1070267629,0.9224,-0.5356,0.2749,65.49,8.66,26.77
727,1070272627,0.9155,-0.5015,0.2881,58.72,7.01,24.33
728,1070277627,0.9053,-0.4585,0.2988,55.73,5.43,22.01
729,1070282627,0.9175,-0.4219,0.3013,55.91,4.09,19.76
730,1070287629,0.9429,-0.3755,0.3218,57.44,2.62,17.99
731,1070292629,0.9453,-0.3213,0.3359,58.35,1.28,16.83
732,1070297628,0.9497,-0.2769,0.3555,58.41,-0.12,15.98
733,1070302627,0.9722,-0.2383,0.3901,57.68,-1.16,15.55
734,1070307629,0.9854,-0.2085,0.4316,57.20,-2.50,15.55
735,1070312628,1.0107,-0.2134,0.4639,58.35,-3.90,15.98
736,1070317629,1.0122,-0.1870,0.5254,60.24,-5.55,16.83
737,1070322627,1.0142,-0.1948,0.5625,62.56,-7.44,18.11
738,1070327629,1.0039,-0.1812,0.6045,64.45,-9.82,19.70
739,1070332628,0.9751,-0.1729,0.6328,66.10,-12.80,21.46
740,1070337629,0.9595,-0.1655,0.6489,67.80,-15.85,23.11
741,1070342627,0.9556,-0.1655,0.6353,69.51,-19.45,25.37
742,1070347628,0.9395,-0.1724,0.6094,70.61,-23.29,27.68
743,1070352631,0.9111,-0.1729,0.5820,71.04,-27.38,30.00
744,1070357628,0.8735,-0.1821,0.5430,71.34,-31.71,32.20
745,1070362629,0.8462,-0.1929,0.5010,71.22,-35.67,33.96
746,1070367627,0.8335,-0.2070,0.4473,70.91,-39.45,35.55
747,1070372627,0.8179,-0.2241,0.4150,70.61,-42.74,37.01
748,1070377627,0.8213,-0.2607,0.3774,70.73,-45.00,38.05
749,1070382627,0.8262,-0.2935,0.3413,71.28,-46.59,39.27
750,1070387630,0.8311,-0.3179,0.3164,71.77,-47.44,40.12
751,1070392629,0.8423,-0.3394,0.3022,72.44,-47.26,40.85
752,1070397629,0.8535,-0.3672,0.2837,73.96,-46.59,41.34
753,1070402629,0.8545,-0.3799,0.2837,76.22,-45.37,41.83
754,1070407628,0.8613,-0.3843,0.2700,79.02,-43.84,42.13
755,1070412627,0.8618,-0.3887,0.2510,82.38,-42.44,42.74
756,1070417628,0.8716,-0.3867,0.2104,85.98,-41.28,43.48
757,1070422629,0.8730,-0.3853,0.1719,88.84,-40.24,44.39
758,1070427628,0.8818,-0.3843,0.1265,89.39,-39.57,45.37
759,1070432630,0.8931,-0.3833,0.0815,88.29,-38.90,46.04
760,1070437629,0.9062,-0.3911,0.0449,86.22,-38.05,46.65
761,1070442627,0.9092,-0.4087,0.0171,84.57,-36.83,47.32
762,1070447630,0.9062,-0.4180,0.0127,83.11,-35.43,47.68
763,1070452627,0.9038,-0.4380,0.0181,82.74,-33.78,47.99
764,1070457629,0.8828,-0.4648,0.0400,83.54,-31.77,47.99
765,1070462629,0.8711,-0.4858,0.0859,84.94,-29.94,47.93
766,1070467628,0.8760,-0.5137,0.1143,86.83,-28.66,47.87
767,1070472627,0.8804,-0.5430,0.1533,90.12,-27.62,47.68
768,1070477630,0.8691,-0.5723,0.1943,93.05,-27.20,47.38
769,1070482629,0.8623,-0.5972,0.2246,94.21,-27.32,46.83
770,1070487627,0.8618,-0.6035,0.2319,92.38,-28.29,46.28
771,1070492629,0.8691,-0.5942,0.2163,87.01,-30.37,45.24
772,1070497628,0.8926,-0.5845,0.1978,82.56,-32.26,44.63
773,1070502627,0.9155,-0.5645,0.1802,78.11,-34.76,43.96
774,1070507627,0.9302,-0.5474,0.1606,76.65,-37.26,43.23
775,1070512627,0.9448,-0.5239,0.1475,78.17,-39.02,42.87
776,1070517629,0.9497,-0.4868,0.1377,81.95,-40.43,42.68
777,1070522629,0.9609,-0.4585,0.1289,85.43,-40.91,42.99
778,1070527628,0.9614,-0.4497,0.1372,88.23,-40.91,43.29
779,1070532627,0.9546,-0.4395,0.1748,92.07,-40.79,43.90
780,1070537627,0.9419,-0.4502,0.2119,96.89,-40.61,44.57
781,1070542630,0.9150,-0.4629,0.2759,102.80,-40.91,45.61
782,1070547629,0.8735,-0.4795,0.3271,106.46,-42.32,46.34
783,1070552629,0.8320,-0.4956,0.3638,108.05,-44.57,46.89
784,1070557629,0.8125,-0.5176,0.3984,106.71,-47.87,47.68
785,1070562629,0.8032,-0.5249,0.4312,102.32,-52.01,48.41
786,1070567629,0.7949,-0.5088,0.4429,96.59,-56.77,49.09
787,1070572627,0.7974,-0.4917,0.4326,92.74,-60.73,49.88
788,1070577627,0.7842,-0.4526,0.3804,89.51,-66.22,51.10
789,1070582627,0.7832,-0.3970,0.3286,87.26,-71.52,52.68
790,1070587627,0.7783,-0.3423,0.2588,85.30,-76.46,54.51
791,1070592627,0.7939,-0.2910,0.2021,84.27,-80.49,56.65
792,1070597629,0.7910,-0.2427,0.1533,84.51,-83.78,59.76
793,1070602684,0.7686,-0.2290,0.1196,86.59,-85.30,62.32
794,1070607629,0.7393,-0.2231,0.1128,90.30,-86.04,65.30
795,1070612628,0.7236,-0.2310,0.1299,94.94,-86.04,68.35
796,1070617629,0.7241,-0.2598,0.1509,100.79,-85.73,71.40
797,1070622627,0.7134,-0.3110,0.1812,107.26,-85.73,74.70
798,1070627629,0.6885,-0.3687,0.2305,111.83,-86.16,77.99
799,1070632628,0.6597,-0.4414,0.2749,112.99,-87.68,80.85
800,1070637629,0.6572,-0.5225,0.3062,111.77,-89.70,83.17
801,1070642629,0.6738,-0.5981,0.3188,108.96,-92.74,84.94
802,1070647629,0.6670,-0.6685,0.3140,104.76,-96.04,87.01
803,1070652719,0.6709,-0.7207,0.3037,99.57,-100.18,87.44
804,1070657629,0.6699,-0.7461,0.2788,94.15,-104.45,88.72
805,1070662627,0.6680,-0.7349,0.2393,89.94,-108.17,88.84
806,1070667629,0.6611,-0.6968,0.1973,88.41,-111.10,89.39
807,1070672628,0.6479,-0.6450,0.1577,89.51,-113.05,90.73
808,1070677627,0.6187,-0.5581,0.1313,91.34,-114.15,92.56
809,1070682631,0.6006,-0.4639,0.1143,93.54,-114.51,95.30
810,1070687628,0.6021,-0.3740,0.1221,97.44,-114.21,98.78
811,1070692630,0.6074,-0.3018,0.1436,102.93,-113.78,103.41
812,1070697629,0.5918,-0.2568,0.1680,108.90,-113.48,109.39
813,1070702627,0.5767,-0.2598,0.1816,113.41,-114.02,116.28
814,1070707630,0.5249,-0.2764,0.2437,114.39,-115.55,122.80
815,1070712627,0.4883,-0.3276,0.3062,113.29,-117.62,128.23
816,1070717631,0.4443,-0.3887,0.3647,114.51,-120.24,132.56
817,1070722628,0.4316,-0.4414,0.4204,119.57,-123.23,136.22
818,1070727629,0.3867,-0.4976,0.4712,127.62,-126.59,139.45
819,1070732627,0.3154,-0.5327,0.4966,135.91,-130.12,142.20
820,1070737630,0.2427,-0.5366,0.5283,144.51,-133.90,144.39
821,1070742628,0.1924,-0.5127,0.5547,152.74,-137.80,146.52
822,1070747629,0.1719,-0.4702,0.5596,161.28,-141.59,149.57
823,1070752629,0.1201,-0.4204,0.5474,169.51,-146.22,154.09
824,1070757629,0.0674,-0.3267,0.5420,173.72,-151.71,160.43
825,1070762628,0.0254,-0.2188,0.5503,173.60,-157.68,167.74
826,1070767631,0.0010,-0.1250,0.5596,173.41,-163.72,176.28
827,1070772628,-0.0415,-0.0269,0.5518,176.10,-170.00,186.52
828,1070777629,-0.0576,0.0400,0.5205,178.90,-175.49,198.72
829,1070782627,-0.1006,0.0840,0.4834,177.56,-180.55,212.62
830,1070787629,-0.2070,0.1089,0.4385,171.28,-184.82,227.13
831,1070792628,-0.3433,0.0967,0.3853,165.00,-188.35,241.71
832,1070797627,-0.4897,0.0884,0.3247,164.76,-190.98,256.40
833,1070802627,-0.6445,0.0698,0.2656,172.93,-192.44,271.89
834,1070807735,-0.8208,0.0742,0.2056,186.77,-192.32,288.41
835,1070812629,-1.0156,0.0796,0.1235,202.13,-190.37,305.61
836,1070817629,-1.1870,0.0669,0.0459,216.46,-186.40,323.54
837,1070822628,-1.3564,0.0581,-0.0215,228.05,-180.67,342.38
838,1070827629,-1.5884,0.0459,-0.0933,236.10,-173.48,360.85
839,1070832627,-1.8467,0.0269,-0.1460,241.71,-165.49,378.23
840,1070837629,-2.1011,-0.0073,-0.1948,247.26,-156.59,394.70
841,1070842647,-2.3994,-0.0444,-0.2920,254.57,-147.20,411.28
842,1070847628,-2.5005,-0.0859,-0.3306,263.23,-137.56,428.48
843,1070852630,-2.6836,-0.1143,-0.5239,272.68,-126.10,446.65
844,1070857629,-2.9219,-0.1587,-0.7383,280.85,-113.54,466.04
845,1070862627,-3.1694,-0.1943,-0.8950,285.49,-99.76,486.52
846,1070867627,-3.3760,-0.2812,-1.0581,286.04,-84.33,507.20
847,1070872627,-3.6504,-0.3667,-1.2583,279.94,-67.44,527.56
848,1070877948,-4.0044,-0.4609,-1.4531,265.67,-49.57,545.91
849,1070882629,-4.3496,-0.5557,-1.6313,245.91,-31.10,561.40
850,1070887628,-4.6655,-0.6382,-1.8491,225.43,-11.34,574.63
851,1070892948,-4.9185,-0.6743,-2.0850,209.09,10.06,585.91
852,1070897629,-5.0723,-0.7334,-2.3853,200.55,33.48,595.00
853,1070902643,-5.3218,-0.8193,-2.6641,200.85,59.57,601.10
854,1070907627,-5.6211,-1.0195,-2.9805,209.63,88.54,603.11
855,1070912627,-5.8657,-1.2070,-3.2681,223.29,122.01,600.18
856,1070917629,-6.0381,-1.4927,-3.4136,237.32,158.48,589.70
857,1070922629,-6.0029,-1.7520,-3.5469,251.52,198.90,570.37
858,1070927627,-5.7856,-2.0303,-3.5820,269.15,242.26,542.50
859,1070932627,-6.1738,-2.3213,-3.4961,280.30,286.89,506.04
860,1070937629,-6.1509,-2.9629,-3.6357,283.11,335.12,461.34
861,1070942630,-6.1699,-3.1611,-3.3184,278.78,383.90,410.06
862,1070947628,-6.1772,-3.6318,-3.2441,270.43,434.94,353.11
863,1070952630,-6.2808,-3.8833,-2.9023,264.15,486.46,291.89
864,1070957629,-6.4541,-4.1655,-2.6304,263.66,538.23,226.40
865,1070962629,-6.7310,-4.4839,-2.2363,274.39,589.63,156.77
866,1070967629,-7.1343,-4.7207,-1.7446,298.84,639.76,82.93
867,1070972629,-7.5898,-5.0132,-1.2954,334.70,687.87,4.27
868,1070977627,-8.0732,-5.2368,-0.7988,376.71,731.65,-78.84
869,1070982629,-8.5728,-5.4453,-0.3931,415.85,770.00,-166.28
870,1070987629,-9.2065,-5.6196,-0.0752,442.38,802.62,-256.65
871,1070992627,-10.1191,-5.8003,0.1641,452.32,831.10,-349.70
872,1070997629,-11.1333,-6.0015,0.2495,450.06,857.87,-444.21
873,1071002629,-12.2446,-6.1763,0.1909,439.94,883.96,-537.56
874,1071007629,-13.4619,-6.3281,0.1450,423.48,910.55,-626.89
875,1071012629,-14.6152,-6.5410,0.1221,400.00,939.21,-709.51
876,1071017627,-15.8784,-6.7461,0.1484,365.00,969.45,-783.72
877,1071022627,-15.9966,-6.9780,0.3999,316.16,1001.65,-848.35
878,1071027627,-16.0000,-7.1899,0.7812,255.06,1034.63,-901.77
879,1071032629,-16.0000,-7.2852,1.4224,181.95,1067.32,-943.17
880,1071037628,-16.0000,-7.3706,2.4463,97.99,1099.02,-972.13
881,1071042630,-16.0000,-7.3374,3.5547,10.43,1127.80,-989.15
882,1071047628,-16.0000,-7.3809,4.7627,-71.04,1151.65,-995.85
883,1071052630,-16.0000,-7.3374,6.0186,-141.46,1165.85,-994.09
884,1071057629,-16.0000,-7.1421,7.0728,-199.39,1167.68,-988.11
885,1071062629,-16.0000,-6.9033,8.0723,-248.90,1155.37,-981.77
886,1071067627,-16.0000,-6.7256,8.9312,-289.45,1128.05,-977.56
887,1071072629,-16.0000,-6.6929,9.5781,-318.66,1086.46,-976.40
888,1071077762,-16.0000,-6.6606,9.9971,-333.23,1033.66,-979.33
889,1071082628,-16.0000,-6.6582,10.0674,-340.24,973.35,-987.26
890,1071087632,-16.0000,-6.6558,10.0820,-341.52,910.18,-1000.00
891,1071092627,-16.0000,-6.4546,9.9536,-336.52,845.24,-1017.13
892,1071097629,-16.0000,-6.4092,9.7769,-330.06,781.77,-1037.99
893,1071102630,-16.0000,-6.3125,9.3843,-331.46,724.45,-1059.88
894,1071107627,-16.0000,-6.2329,9.1357,-338.96,674.51,-1080.61
895,1071112627,-16.0000,-6.0859,8.5674,-348.17,632.56,-1099.63
896,1071117628,-16.0000,-5.9858,8.1084,-354.76,597.44,-1116.28
897,1071122629,-16.0000,-5.8442,7.5972,-352.50,569.39,-1130.49
898,1071127629,-15.9531,-5.6782,7.1797,-339.70,547.44,-1142.56
899,1071132627,-15.6050,-5.5020,6.8203,-318.11,529.33,-1153.54
900,1071137629,-15.2583,-5.2666,6.5073,-285.30,514.15,-1163.29
901,1071142627,-15.0425,-5.0371,6.2495,-246.83,500.12,-1172.26
902,1071147631,-14.9883,-4.7539,5.9097,-210.73,484.82,-1179.88
903,1071152631,-14.8813,-4.3896,5.6665,-179.27,467.93,-1185.61
904,1071157628,-14.5557,-3.9614,5.5054,-150.55,449.33,-1188.66
905,1071162629,-14.2134,-3.4531,5.4458,-118.60,427.26,-1188.41
906,1071167628,-13.8950,-2.8237,5.5693,-84.88,400.24,-1185.43
907,1071172627,-13.4395,-2.1299,5.7046,-51.10,367.50,-1179.88
908,1071177631,-13.0947,-1.5020,5.8613,-17.62,328.66,-1170.67
909,1071182629,-12.5537,-0.8950,5.8677,19.76,284.09,-1157.26
910,1071187628,-12.0562,-0.3286,5.8213,62.99,234.27,-1138.41
911,1071192628,-11.4189,0.2192,5.6396,105.12,181.04,-1114.76
912,1071197631,-10.8169,0.6543,5.3228,141.95,126.16,-1085.85
913,1071202629,-10.2051,1.0288,4.9214,171.04,71.95,-1053.05
914,1071207629,-9.8940,1.2026,4.4419,186.28,20.30,-1015.06
915,1071212627,-9.2256,1.6406,3.9839,191.46,-27.50,-973.41
916,1071217627,-8.7388,1.9619,3.5498,191.65,-70.24,-929.27
917,1071222627,-8.4165,2.1670,3.1724,189.09,-108.23,-882.07
918,1071227631,-7.6045,2.5947,2.6099,189.94,-143.35,-833.54
919,1071232627,-7.2368,2.8105,2.3271,194.94,-175.85,-781.71
920,1071237627,-6.8052,2.9985,2.1250,200.61,-203.29,-726.46
921,1071242634,-6.2764,3.1948,1.7036,205.55,-228.35,-669.57
922,1071247628,-5.8242,3.3364,1.4185,206.71,-249.39,-612.50
923,1071252628,-5.3477,3.4854,1.1401,202.56,-265.00,-556.22
924,1071257627,-4.9844,3.5571,0.9473,194.09,-275.00,-501.59
925,1071262627,-4.5132,3.6084,0.5864,181.77,-280.06,-449.33
926,1071267627,-4.3340,3.5264,0.3779,165.24,-280.49,-399.27
927,1071272627,-3.9873,3.7080,0.0986,149.21,-276.28,-350.73
928,1071277627,-3.6099,3.6172,0.0928,142.62,-267.74,-305.24
929,1071282632,-3.4160,3.5396,-0.0659,148.60,-256.34,-262.07
930,1071287628,-3.1973,3.4644,-0.2373,164.63,-244.21,-220.61
931,1071292629,-2.9365,3.3228,-0.3169,186.40,-231.28,-180.98
932,1071297628,-2.6650,3.1401,-0.3931,207.80,-217.93,-143.23
933,1071302627,-2.4419,2.9619,-0.4634,222.74,-204.27,-108.11
934,1071307627,-2.2490,2.7593,-0.5210,229.02,-190.67,-76.16
935,1071312627,-2.0312,2.5488,-0.5762,226.71,-177.26,-47.62
936,1071317627,-1.8076,2.3174,-0.6138,217.26,-163.96,-22.26
937,1071322631,-1.6147,2.1206,-0.6987,202.50,-151.59,-0.24
938,1071327628,-1.4009,1.8618,-0.6436,185.18,-139.57,18.96
939,1071332631,-1.2173,1.6650,-0.5981,166.34,-126.34,35.12
940,1071337629,-1.0361,1.4878,-0.6455,147.99,-115.12,48.23
941,1071342628,-0.8765,1.3027,-0.6167,130.67,-104.82,58.35
942,1071347627,-0.7046,1.1162,-0.5635,113.48,-93.96,66.04
943,1071352629,-0.5435,0.9702,-0.5376,97.26,-83.54,71.59
944,1071357697,-0.4028,0.8105,-0.4766,82.93,-73.96,75.00
945,1071362627,-0.2573,0.6436,-0.3770,71.46,-65.37,76.89
946,1071367627,-0.1577,0.4829,-0.2852,63.78,-57.68,76.95
947,1071372627,-0.0908,0.3306,-0.1934,59.57,-51.65,75.43
948,1071377627,-0.0464,0.1836,-0.1133,58.23,-47.44,72.07
949,1071382627,-0.0142,0.0469,-0.0337,58.35,-44.51,66.95
950,1071387710,-0.0059,-0.0645,0.0166,59.15,-42.56,60.49
951,1071392627,0.0132,-0.1616,0.0576,59.76,-41.22,52.62
952,1071397627,0.0317,-0.2573,0.0835,60.24,-40.49,43.78
953,1071402627,0.0410,-0.3311,0.0957,59.70,-40.24,33.96
954,1071407627,0.0552,-0.3867,0.1133,57.20,-40.61,23.23
955,1071412627,0.0532,-0.4194,0.1279,52.20,-40.98,11.65
956,1071417627,0.0776,-0.4155,0.1318,44.63,-41.40,-0.43
957,1071422627,0.0991,-0.3911,0.1250,35.49,-41.83,-12.93
958,1071427627,0.0942,-0.3496,0.1294,25.67,-41.95,-25.00
959,1071432627,0.0698,-0.2793,0.1201,16.59,-41.65,-36.59
960,1071437631,0.0454,-0.1968,0.1211,9.39,-40.98,-47.74
961,1071442629,0.0195,-0.0942,0.1128,4.21,-39.82,-57.68
962,1071447629,-0.0088,0.0249,0.1025,1.04,-38.23,-66.71
963,1071452628,-0.0405,0.1323,0.1191,-0.79,-36.28,-74.45
964,1071457629,-0.0771,0.2388,0.1294,-1.65,-33.90,-80.85
965,1071462628,-0.1201,0.3369,0.1216,-1.28,-31.28,-85.91
966,1071467627,-0.1729,0.4194,0.1084,-0.18,-28.54,-89.88
967,1071472627,-0.2227,0.5137,0.0928,1.77,-25.37,-92.93
968,1071477627,-0.2534,0.5986,0.0879,3.72,-21.89,-95.49
969,1071482627,-0.2891,0.6719,0.0864,5.98,-18.05,-97.20
970,1071487627,-0.3145,0.7427,0.0879,8.60,-13.78,-98.35
971,1071492627,-0.3462,0.8120,0.0977,11.28,-9.09,-98.72
972,1071497627,-0.3721,0.8921,0.1050,13.35,-4.33,-98.90
973,1071502627,-0.3867,0.9683,0.1265,14.57,0.49,-98.54
974,1071507627,-0.4126,1.0356,0.1475,14.76,5.12,-97.44
975,1071512627,-0.4292,1.0923,0.1650,13.78,9.09,-95.43
976,1071517627,-0.4546,1.1475,0.1831,11.52,12.68,-92.87
977,1071522627,-0.4824,1.1982,0.2163,8.23,15.37,-89.57
978,1071527631,-0.5063,1.2441,0.2344,4.09,17.62,-85.73
979,1071532628,-0.5361,1.2910,0.2588,-0.12,19.45,-81.59
980,1071537627,-0.5894,1.3335,0.2764,-3.72,20.73,-77.13
981,1071542627,-0.6191,1.3760,0.3135,-5.79,21.59,-72.38
982,1071547632,-0.6318,1.4258,0.3433,-5.30,22.62,-67.26
983,1071552628,-0.6299,1.4619,0.3745,-1.52,22.99,-61.95
984,1071557630,-0.6123,1.4946,0.4126,5.30,23.17,-55.98
985,1071562628,-0.5825,1.5220,0.4512,13.78,23.11,-49.57
986,1071567675,-0.5620,1.5469,0.4858,22.13,22.74,-42.62
987,1071572628,-0.5474,1.5659,0.5098,28.35,22.01,-35.37
988,1071577630,-0.5190,1.5679,0.5298,31.52,21.04,-27.87
989,1071582628,-0.4888,1.5684,0.5508,31.83,19.76,-20.37
990,1071587627,-0.4604,1.5552,0.5767,29.76,18.48,-12.68
991,1071592631,-0.4375,1.5410,0.5942,26.04,16.65,-5.06
992,1071597628,-0.4165,1.5293,0.6147,21.52,14.57,2.38
993,1071602627,-0.4185,1.5137,0.6323,16.95,12.32,9.57
994,1071607627,-0.4038,1.4829,0.6572,12.93,9.88,16.34
995,1071612631,-0.3716,1.4731,0.6611,9.76,7.13,23.05
996,1071617628,-0.3369,1.4531,0.6816,7.38,4.63,29.63
997,1071622627,-0.3062,1.4336,0.6948,5.67,2.20,36.16
998,1071627627,-0.2827,1.4038,0.6973,4.51,-0.43,42.62
999,1071632920,-0.2632,1.3740,0.7065,4.02,-2.93,48.90
1000,1071637629,-0.2485,1.3496,0.7188,4.27,-5.55,54.94
1001,1071642629,-0.2397,1.3125,0.7222,4.88,-8.23,60.55
1002,1071647628,-0.2354,1.2690,0.7266,5.67,-11.04,65.98
1003,1071653113,-0.2427,1.2319,0.7192,6.28,-13.90,71.16
1004,1071657631,-0.2466,1.1895,0.7153,6.65,-17.20,75.91
1005,1071662628,-0.2588,1.1421,0.7109,6.59,-20.24,80.12
1006,1071667631,-0.2695,1.0957,0.6982,6.04,-23.54,83.78
1007,1071672628,-0.2798,1.0513,0.6831,4.94,-26.95,86.71
1008,1071677627,-0.2983,1.0078,0.6616,3.54,-30.43,88.66
1009,1071682627,-0.2925,0.9644,0.6353,2.01,-33.84,90.79
1010,1071687627,-0.2856,0.9263,0.6069,0.12,-36.83,92.56
1011,1071692627,-0.2856,0.9014,0.5840,-1.95,-40.06,93.54
1012,1071697627,-0.2739,0.8682,0.5684,-3.84,-42.68,93.96
1013,1071702627,-0.2695,0.8433,0.5513,-5.30,-44.88,94.15
1014,1071707627,-0.2568,0.8242,0.5361,-6.10,-46.95,93.96
1015,1071712627,-0.2358,0.8130,0.5239,-6.10,-48.23,93.78
1016,1071717627,-0.2158,0.8047,0.5029,-5.43,-49.45,93.60
1017,1071722627,-0.1968,0.8018,0.4966,-4.15,-49.88,93.66
1018,1071727627,-0.1704,0.7896,0.4790,-2.80,-50.18,93.72
1019,1071732627,-0.1504,0.7773,0.4678,-1.40,-50.12,94.39
1020,1071737627,-0.1411,0.7681,0.4624,-0.43,-49.82,95.12
1021,1071742627,-0.1577,0.7559,0.4512,0.00,-49.51,95.73
1022,1071747627,-0.1689,0.7451,0.4424,0.06,-48.90,96.28
1023,1071752627,-0.1689,0.7368,0.4316,-0.18,-47.99,96.22
1024,1071757627,-0.1699,0.7349,0.4102,-0.79,-46.83,95.85
1025,1071762627,-0.1587,0.7319,0.3940,-1.52,-45.30,95.24
1026,1071767627,-0.1421,0.7266,0.3804,-2.07,-43.41,94.57
1027,1071772627,-0.1348,0.7285,0.3662,-1.95,-41.28,93.78
1028,1071777627,-0.1313,0.7192,0.3618,-1.28,-39.15,92.80
1029,1071782627,-0.1255,0.7192,0.3623,-0.30,-37.26,91.77
1030,1071787632,-0.1182,0.7188,0.3545,0.24,-35.43,90.79
1031,1071792783,-0.1094,0.7295,0.3555,0.12,-33.66,89.51
1032,1071797627,-0.0928,0.7427,0.3618,-0.91,-31.71,88.78
1033,1071802627,-0.0693,0.7520,0.3726,-2.01,-30.00,87.13
1034,1071808227,-0.0562,0.7598,0.3882,-3.54,-28.48,86.59
1035,1071812763,-0.0562,0.7739,0.4004,-5.00,-27.32,86.59
1036,1071817629,-0.0542,0.7886,0.4092,-6.52,-26.40,86.16
1037,1071822627,-0.0527,0.8027,0.4243,-7.87,-25.61,85.24
1038,1071827627,-0.0640,0.8198,0.4321,-8.23,-24.94,84.57
1039,1071832627,-0.0933,0.8340,0.4419,-7.80,-24.27,84.39
1040,1071837631,-0.1582,0.8501,0.4463,-6.40,-23.78,84.09
1041,1071842628,-0.2241,0.8711,0.4570,-5.00,-23.48,83.66
1042,1071847627,-0.2925,0.9160,0.4556,-4.27,-23.05,83.29
1043,1071852629,-0.3555,0.9785,0.4551,-4.09,-22.74,82.68
1044,1071857628,-0.4136,1.0283,0.4512,-4.15,-22.38,82.13
1045,1071862627,-0.4590,1.0918,0.4468,-3.35,-21.77,81.46
1046,1071867627,-0.4800,1.1475,0.4414,-2.01,-20.85,81.10
1047,1071872627,-0.4780,1.2046,0.4502,-0.61,-20.06,81.46
1048,1071877627,-0.4819,1.2661,0.4468,0.12,-19.39,82.13
1049,1071882631,-0.4834,1.3228,0.4434,0.79,-18.78,83.35
1050,1071887642,-0.4658,1.3750,0.4399,1.89,-18.29,85.00
1051,1071892631,-0.4395,1.4189,0.4395,3.66,-17.80,87.26
1052,1071897628,-0.4199,1.4443,0.4146,5.37,-17.01,90.61
1053,1071902631,-0.3999,1.4780,0.3906,6.52,-16.46,94.76
1054,1071907628,-0.3618,1.5034,0.3589,6.65,-15.49,99.76
1055,1071912627,-0.3218,1.5278,0.3394,5.85,-14.51,105.61
1056,1071917627,-0.2852,1.5439,0.3052,4.70,-13.48,112.01
1057,1071922627,-0.2725,1.5562,0.2974,2.62,-12.32,118.72
1058,1071927627,-0.2686,1.5723,0.2808,0.00,-10.98,125.49
1059,1071932631,-0.2417,1.5913,0.2515,-2.20,-9.82,132.01
1060,1071937628,-0.2119,1.5835,0.2725,-2.93,-8.41,138.17
1061,1071942627,-0.2075,1.5757,0.2915,-2.62,-6.52,144.09
1062,1071947627,-0.1753,1.5620,0.2666,-2.32,-4.70,149.51
1063,1071952631,-0.2080,1.5347,0.2812,-1.71,-3.41,154.82
1064,1071957628,-0.2471,1.5205,0.3091,-1.83,-1.71,159.63
1065,1071962629,-0.2891,1.4888,0.2622,-3.35,-0.73,164.15
1066,1071967628,-0.3228,1.4609,0.2578,-7.26,0.24,168.48
1067,1071972627,-0.3506,1.4409,0.2715,-12.74,0.73,172.50
1068,1071977631,-0.3374,1.4199,0.2607,-17.56,1.04,176.16
1069,1071982627,-0.3608,1.3955,0.2324,-20.06,1.10,179.70
1070,1071987631,-0.3711,1.3784,0.2227,-20.67,0.79,183.29
1071,1071992639,-0.3340,1.3379,0.2471,-19.27,0.79,187.13
1072,1071997630,-0.3345,1.3115,0.2109,-16.28,0.85,190.91
1073,1072002697,-0.3223,1.2939,0.2026,-12.87,1.28,195.06
1074,1072007629,-0.3164,1.2476,0.2207,-9.27,2.13,198.96
1075,1072012684,-0.2856,1.1968,0.2388,-5.49,3.05,203.35
1076,1072017628,-0.2905,1.1377,0.2300,-1.59,3.54,207.32
1077,1072022629,-0.3003,1.0874,0.2759,3.11,3.48,210.98
1078,1072027628,-0.2725,1.0156,0.3638,8.29,3.11,214.09
1079,1072032627,-0.2231,0.9561,0.3237,13.17,1.65,216.52
1080,1072037627,-0.2041,0.9028,0.3296,17.01,-0.73,218.48
1081,1072042627,-0.1621,0.8413,0.4258,19.15,-2.74,219.94
1082,1072047629,-0.1289,0.7866,0.4214,19.76,-5.06,221.04
1083,1072052627,-0.1187,0.7329,0.3770,18.90,-7.50,222.01
1084,1072057627,-0.0938,0.6699,0.3730,16.46,-10.12,222.93
1085,1072062627,-0.0508,0.6372,0.4023,13.05,-12.07,223.78
1086,1072067628,-0.0435,0.5986,0.4067,9.51,-12.93,224.63
1087,1072072627,-0.0420,0.5605,0.3501,6.40,-13.60,225.61
1088,1072077627,-0.0410,0.5293,0.3315,4.33,-13.84,226.46
1089,1072082631,-0.0508,0.4912,0.3311,3.35,-13.54,227.44
1090,1072087629,-0.0234,0.4639,0.3306,3.60,-13.48,228.48
1091,1072092628,-0.0015,0.4033,0.3169,4.63,-13.11,229.63
1092,1072097629,0.0239,0.3740,0.3584,6.95,-12.74,230.49
1093,1072103060,0.0537,0.3452,0.3911,10.85,-12.44,231.16
1094,1072107630,0.0757,0.3110,0.3892,16.89,-12.62,231.04
1095,1072112629,0.0752,0.2734,0.4189,24.70,-13.41,230.18
1096,1072117628,0.0933,0.2603,0.4600,33.23,-13.84,228.48
1097,1072122627,0.1069,0.2134,0.4668,41.89,-14.88,226.28
1098,1072127627,0.1250,0.1729,0.4648,49.82,-16.34,224.21
1099,1072132627,0.1421,0.1680,0.4790,55.79,-17.99,221.65
1100,1072137627,0.1494,0.1128,0.4937,58.72,-20.06,218.78
1101,1072142627,0.1870,0.1201,0.4448,59.27,-22.13,215.85
1102,1072147632,0.1841,0.1060,0.4243,57.20,-24.76,213.11
1103,1072152685,0.2017,0.1016,0.4180,53.17,-27.01,210.37
1104,1072157628,0.2065,0.0859,0.3794,47.56,-29.15,208.05
1105,1072162627,0.1890,0.0747,0.3462,41.52,-30.98,205.98
1106,1072167627,0.1733,0.0723,0.3267,36.22,-32.68,204.15
1107,1072172628,0.1719,0.0767,0.3047,32.80,-33.60,202.62
1108,1072177627,0.1802,0.0947,0.2920,32.38,-34.33,200.98
1109,1072182631,0.2065,0.1147,0.2915,35.43,-34.09,199.09
1110,1072187628,0.2432,0.1255,0.2959,42.13,-33.23,196.77
1111,1072192630,0.2935,0.1133,0.2944,52.07,-31.77,194.27
1112,1072197630,0.3433,0.0952,0.2939,63.84,-30.06,191.89
1113,1072202627,0.3828,0.0718,0.2900,75.67,-28.17,189.94
1114,1072207627,0.4243,0.0591,0.2759,85.79,-26.28,188.35
1115,1072212627,0.4775,0.0400,0.2617,93.11,-24.39,187.20
1116,1072217627,0.5088,0.0151,0.2490,96.59,-22.56,186.34
1117,1072222627,0.5259,-0.0059,0.2275,96.89,-20.55,185.61
1118,1072227627,0.5327,-0.0332,0.2100,94.82,-18.72,184.94
1119,1072233229,0.5205,-0.0645,0.2002,91.10,-16.40,183.78
1120,1072237631,0.5195,-0.0835,0.1826,88.72,-14.82,182.99
1121,1072242629,0.5181,-0.1045,0.1631,86.71,-12.74,181.77
1122,1072247629,0.5234,-0.1274,0.1514,85.73,-10.55,180.55
1123,1072252629,0.5303,-0.1558,0.1343,85.43,-7.99,179.09
1124,1072257629,0.5542,-0.1738,0.1406,85.43,-5.30,177.68
1125,1072262629,0.5752,-0.1948,0.1509,85.12,-2.56,176.40
1126,1072267629,0.6021,-0.2007,0.1587,84.76,-0.12,175.24
1127,1072272629,0.6226,-0.2056,0.1660,84.45,1.95,173.96
1128,1072277629,0.6421,-0.2070,0.1978,84.57,3.48,172.56
1129,1072282627,0.6636,-0.1938,0.2314,85.79,4.76,171.16
1130,1072287630,0.6973,-0.1851,0.2510,88.11,5.37,169.82
1131,1072292629,0.7256,-0.1758,0.2695,91.59,5.55,168.66
1132,1072297628,0.7495,-0.1631,0.2910,95.30,5.43,167.80
1133,1072302627,0.7686,-0.1514,0.2944,98.78,4.76,167.20
1134,1072307627,0.7842,-0.1445,0.2812,101.22,3.84,166.89
1135,1072312627,0.7974,-0.1484,0.2637,102.56,2.68,166.71
1136,1072317627,0.8076,-0.1479,0.2422,102.74,2.07,166.83
1137,1072322627,0.8154,-0.1465,0.2251,101.59,1.83,167.07
1138,1072327627,0.8364,-0.1411,0.2031,99.27,2.26,167.38
1139,1072332627,0.8452,-0.1509,0.1841,96.04,3.17,168.05
1140,1072337627,0.8555,-0.1587,0.1714,92.38,4.39,168.90
1141,1072342627,0.8643,-0.1665,0.1831,88.96,5.91,170.00
1142,1072347627,0.8672,-0.1846,0.2046,86.10,7.38,170.91
1143,1072352677,0.8726,-0.2031,0.2495,83.66,8.78,171.77
1144,1072357628,0.8823,-0.2163,0.2861,81.65,9.70,172.50
1145,1072362629,0.8843,-0.2163,0.3267,79.88,10.12,172.87
1146,1072367629,0.8921,-0.2148,0.3467,78.54,10.18,173.23
1147,1072372629,0.8994,-0.2158,0.3477,77.44,9.33,173.54
1148,1072377629,0.9146,-0.2075,0.3511,76.59,8.17,173.96
1149,1072382629,0.9214,-0.2041,0.3696,75.43,6.65,174.51
1150,1072387630,0.9517,-0.2007,0.3740,73.17,4.70,175.12
1151,1072392629,0.9512,-0.1973,0.3877,70.06,2.74,175.85
1152,1072397627,0.9663,-0.1885,0.3936,66.65,0.98,176.95
1153,1072402627,0.9800,-0.1807,0.3936,63.96,-0.73,178.23
1154,1072407627,0.9990,-0.1831,0.3892,63.11,-1.89,179.76
1155,1072412631,1.0205,-0.2017,0.3882,64.76,-3.05,181.83
1156,1072417628,1.0493,-0.2295,0.3926,68.84,-3.84,184.33
1157,1072422627,1.0742,-0.2642,0.4131,74.70,-4.82,186.89
1158,1072427627,1.0854,-0.3027,0.4224,80.18,-6.10,189.45
1159,1072432627,1.0942,-0.3481,0.4351,84.39,-7.44,191.22
1160,1072437627,1.1074,-0.3950,0.4468,86.22,-9.39,192.56
1161,1072442627,1.1191,-0.4409,0.4585,85.18,-11.46,193.11
1162,1072447627,1.1255,-0.4863,0.4546,81.04,-13.72,192.87
1163,1072452627,1.1177,-0.5103,0.4380,74.02,-16.52,192.01
1164,1072457627,1.1001,-0.5264,0.4106,65.55,-19.63,190.67
1165,1072462627,1.0791,-0.5454,0.3726,57.56,-22.68,188.72
1166,1072467627,1.0552,-0.5488,0.3350,51.65,-25.55,186.52
1167,1072472627,1.0420,-0.5498,0.2920,48.54,-28.29,184.27
1168,1072477631,1.0371,-0.5532,0.2495,48.41,-30.98,181.95
1169,1072482628,1.0332,-0.5640,0.2129,50.55,-33.05,180.00
1170,1072487627,1.0537,-0.5850,0.1880,54.02,-34.57,177.87
1171,1072492627,1.0679,-0.6074,0.1665,58.41,-35.61,175.79
1172,1072497629,1.0967,-0.6436,0.1611,62.99,-35.91,173.41
1173,1072502629,1.1299,-0.6816,0.1484,67.68,-35.91,170.79
1174,1072507627,1.1592,-0.7192,0.1479,71.65,-35.43,168.11
1175,1072512629,1.1812,-0.7593,0.1538,74.33,-34.63,165.06
1176,1072517629,1.1934,-0.7954,0.1621,74.88,-33.72,161.71
1177,1072522628,1.2139,-0.8291,0.1606,73.35,-32.80,157.80
1178,1072527627,1.2319,-0.8687,0.1782,70.85,-31.83,153.78
1179,1072532627,1.2358,-0.8970,0.1699,68.17,-31.04,149.27
1180,1072537630,1.2358,-0.9048,0.1533,65.67,-30.43,144.51
1181,1072542628,1.2271,-0.9121,0.1230,63.54,-30.12,139.51
1182,1072547628,1.2261,-0.9048,0.0918,61.77,-29.88,134.57
1183,1072552627,1.2183,-0.8945,0.0522,60.18,-29.57,129.45
1184,1072557631,1.2124,-0.8813,0.0298,59.09,-29.39,124.51
1185,1072562628,1.2085,-0.8711,0.0181,58.54,-29.02,119.63
1186,1072567627,1.2075,-0.8589,0.0073,58.84,-28.48,115.12
1187,1072572627,1.2104,-0.8633,0.0073,60.12,-27.68,110.73
1188,1072577627,1.2163,-0.8745,0.0205,61.83,-26.65,106.71
1189,1072582628,1.2207,-0.8735,0.0356,63.78,-25.61,102.74
1190,1072587627,1.2261,-0.8789,0.0532,64.94,-24.27,98.72
1191,1072592627,1.2300,-0.8901,0.0762,64.82,-22.99,94.76
1192,1072597627,1.2422,-0.8926,0.1021,63.90,-21.89,90.73
1193,1072602767,1.2495,-0.8994,0.1304,62.32,-21.16,87.26
1194,1072607627,1.2476,-0.9038,0.1616,60.79,-20.91,83.17
1195,1072612678,1.2437,-0.8994,0.1885,58.96,-21.04,79.21
1196,1072617627,1.2314,-0.8857,0.2124,56.95,-21.65,75.00
1197,1072622788,1.2158,-0.8716,0.2256,54.82,-22.56,70.91
1198,1072627629,1.2109,-0.8599,0.2192,52.80,-23.90,67.07
1199,1072632628,1.2012,-0.8384,0.2256,50.55,-25.61,63.41
1200,1072637629,1.1870,-0.8218,0.2246,47.68,-27.44,59.88
1201,1072642629,1.1714,-0.7900,0.2192,44.27,-29.33,56.40
1202,1072647628,1.1626,-0.7632,0.2104,41.28,-30.91,53.23
1203,1072652627,1.1538,-0.7319,0.2085,39.88,-32.50,50.49
1204,1072658119,1.1353,-0.7002,0.2070,40.37,-33.90,47.62
1205,1072662629,1.1172,-0.6670,0.2178,42.01,-34.82,45.91
1206,1072667628,1.0967,-0.6304,0.2246,44.70,-35.91,44.27
1207,1072672629,1.0659,-0.5908,0.2417,47.62,-36.83,43.05
1208,1072677627,1.0410,-0.5620,0.2432,49.94,-37.68,42.44
1209,1072682627,1.0073,-0.5283,0.2554,50.49,-38.96,42.26
1210,1072687627,0.9756,-0.5034,0.2656,49.33,-39.88,42.32
1211,1072692627,0.9536,-0.5024,0.2661,46.89,-40.98,42.99
1212,1072697630,0.9111,-0.4878,0.2705,43.96,-42.07,43.78
1213,1072702628,0.8613,-0.4868,0.2710,41.16,-42.99,44.51
1214,1072707629,0.8184,-0.4858,0.2632,39.21,-43.66,45.12
1215,1072712630,0.7773,-0.4844,0.2451,38.29,-44.02,45.61
1216,1072717629,0.7295,-0.4756,0.2339,38.54,-44.33,46.04
1217,1072722627,0.6929,-0.4565,0.2070,39.45,-44.27,46.59
1218,1072727627,0.6553,-0.4390,0.1748,40.67,-44.57,47.07
1219,1072732627,0.6177,-0.4170,0.1567,42.01,-44.57,47.87
1220,1072737627,0.5928,-0.3931,0.1445,43.41,-44.45,48.72
1221,1072742627,0.5742,-0.3647,0.1377,45.49,-44.51,49.94
1222,1072747627,0.5630,-0.3315,0.1382,48.35,-44.45,51.40
1223,1072752627,0.5464,-0.3052,0.1343,52.80,-44.70,53.41
1224,1072757627,0.5439,-0.2778,0.1367,59.15,-44.82,55.73
1225,1072762627,0.5391,-0.2554,0.1489,66.89,-45.37,58.78
1226,1072767627,0.5488,-0.2495,0.1592,74.88,-46.04,62.13
1227,1072772627,0.5596,-0.2710,0.1494,82.32,-46.95,66.34
1228,1072777817,0.5439,-0.2744,0.1367,87.44,-47.99,70.73
1229,1072782628,0.5059,-0.2803,0.1377,88.96,-49.02,75.18
1230,1072787629,0.4780,-0.3057,0.1318,86.40,-49.82,78.96
1231,1072792628,0.4712,-0.3164,0.1401,79.94,-50.30,82.68
1232,1072797627,0.4629,-0.3394,0.1475,71.04,-50.30,86.28
1233,1072802631,0.4385,-0.3560,0.1455,60.85,-50.00,88.72
1234,1072807630,0.3833,-0.3608,0.1235,51.04,-49.39,91.83
1235,1072812629,0.4067,-0.3804,0.0874,42.74,-49.02,94.51
1236,1072817913,0.4062,-0.3838,0.1001,37.50,-48.90,97.32
1237,1072822629,0.3672,-0.4077,0.1523,34.70,-47.99,100.12
1238,1072827628,0.3174,-0.4248,0.1006,34.21,-47.32,103.05
1239,1072832627,0.3481,-0.4258,0.1875,36.22,-46.65,106.16
1240,1072837627,0.3481,-0.4521,0.2207,40.55,-45.91,109.21
1241,1072842627,0.3467,-0.4771,0.2578,46.77,-45.37,112.26
1242,1072847627,0.3257,-0.4995,0.2979,54.51,-44.94,115.37
1243,1072852627,0.3032,-0.5195,0.3022,63.23,-44.82,118.66
1244,1072857627,0.2939,-0.5503,0.3008,71.77,-44.94,121.65
1245,1072862631,0.2793,-0.5874,0.3086,79.21,-45.37,124.70
1246,1072868119,0.2671,-0.6240,0.3022,85.37,-45.73,127.80
1247,1072872629,0.2637,-0.6626,0.2998,87.50,-45.85,129.51
1248,1072877627,0.2637,-0.7036,0.2993,87.93,-46.71,131.16
1249,1072882633,0.2578,-0.7363,0.2900,86.22,-47.20,132.50
1250,1072887631,0.2676,-0.7656,0.2812,82.93,-48.05,133.60
1251,1072892629,0.2852,-0.7983,0.2788,78.60,-48.90,134.39
1252,1072897627,0.2969,-0.8110,0.2720,73.90,-49.76,134.88
1253,1072902632,0.2949,-0.8354,0.2710,69.51,-50.67,134.94
1254,1072907629,0.3047,-0.8496,0.2749,66.16,-51.71,135.18
1255,1072912629,0.3125,-0.8608,0.2812,64.21,-52.50,135.43
1256,1072917629,0.3311,-0.8755,0.2905,63.54,-53.29,135.79
1257,1072922629,0.3652,-0.9136,0.3188,64.39,-53.96,136.40
1258,1072927627,0.3901,-0.9624,0.3706,66.40,-54.51,136.95
1259,1072932629,0.3760,-1.0171,0.4316,69.33,-54.70,137.50
1260,1072937627,0.3403,-1.0718,0.4746,72.62,-54.63,137.50
1261,1072942627,0.3140,-1.1108,0.4995,75.85,-54.33,136.95
1262,1072947627,0.2988,-1.1406,0.5059,78.11,-54.21,136.16
1263,1072952627,0.2964,-1.1812,0.5039,79.02,-53.78,134.94
1264,1072957627,0.2837,-1.2070,0.4746,78.11,-53.60,133.60
1265,1072962627,0.2544,-1.2393,0.4565,75.24,-53.11,131.59
1266,1072967629,0.2373,-1.2695,0.4355,70.55,-52.74,129.15
1267,1072972627,0.2397,-1.2949,0.4131,64.88,-52.26,126.22
1268,1072977627,0.2583,-1.3179,0.3931,58.84,-51.77,123.11
1269,1072982627,0.2759,-1.3350,0.3706,53.23,-51.10,119.51
1270,1072987630,0.2842,-1.3428,0.3530,49.02,-50.55,116.10
1271,1072992860,0.2876,-1.3530,0.3359,46.10,-49.94,111.95
1272,1072997631,0.2832,-1.3579,0.3247,45.73,-49.63,109.27
1273,1073002628,0.2910,-1.3628,0.3032,47.07,-49.51,106.22
1274,1073007627,0.2949,-1.3696,0.2866,50.12,-49.33,103.29
1275,1073012627,0.2925,-1.3735,0.2773,54.09,-49.27,100.61
1276,1073017629,0.2881,-1.3828,0.2573,58.23,-49.33,97.93
1277,1073022630,0.2881,-1.3940,0.2510,61.95,-49.45,95.06
1278,1073027629,0.2822,-1.4165,0.1943,64.51,-49.21,92.01
1279,1073032628,0.2881,-1.4160,0.2495,65.18,-49.33,88.78
1280,1073037629,0.3179,-1.4414,0.2676,66.40,-49.45,86.04
1281,1073042628,0.3398,-1.4258,0.2261,68.29,-49.45,82.80
1282,1073047629,0.3643,-1.4199,0.2603,70.79,-49.76,79.94
1283,1073052629,0.3916,-1.4087,0.2612,73.35,-50.55,77.13
1284,1073057629,0.4106,-1.4019,0.2778,75.24,-51.34,74.70
1285,1073062628,0.4482,-1.4097,0.3022,77.44,-52.26,72.87
1286,1073067629,0.4814,-1.3892,0.3086,79.57,-53.72,71.22
1287,1073072628,0.4976,-1.3843,0.3252,80.79,-55.49,69.57
1288,1073077629,0.5420,-1.3433,0.3154,81.65,-57.93,67.74
1289,1073082629,0.5762,-1.3091,0.3052,82.74,-61.04,66.10
1290,1073087629,0.5938,-1.3281,0.3687,83.41,-64.76,64.82
1291,1073092628,0.6157,-1.2720,0.3599,85.06,-69.15,63.41
1292,1073097629,0.5942,-1.2944,0.3491,87.20,-73.84,62.13
1293,1073102628,0.5923,-1.2783,0.4385,89.88,-78.60,60.79
1294,1073107627,0.6260,-1.3042,0.4565,92.50,-83.66,59.27
1295,1073112631,0.6079,-1.2842,0.4307,94.27,-88.54,57.56
1296,1073117628,0.5767,-1.2798,0.4497,94.09,-93.84,55.73
1297,1073122630,0.5664,-1.2852,0.4795,91.04,-98.29,53.84
1298,1073127628,0.5752,-1.2944,0.5054,85.85,-102.13,51.22
1299,1073132629,0.5786,-1.3174,0.4990,79.27,-105.30,48.54
1300,1073137670,0.5693,-1.3486,0.5063,71.59,-108.11,45.30
1301,1073142627,0.5640,-1.3677,0.5000,63.23,-110.18,41.77
1302,1073147627,0.5469,-1.3594,0.5166,55.06,-111.83,37.68
1303,1073152629,0.5288,-1.3550,0.5171,46.40,-112.93,33.41
1304,1073157628,0.5254,-1.3545,0.4541,37.80,-113.60,28.78
1305,1073162627,0.4038,-1.3491,0.3979,28.41,-114.33,23.84
1306,1073167629,0.5254,-1.2993,0.3076,17.80,-114.27,18.78
1307,1073172629,0.5605,-1.2808,0.3389,8.84,-113.72,13.54
1308,1073177629,0.4629,-1.3213,0.3091,-3.11,-113.90,7.68
1309,1073182628,0.4307,-1.3086,0.2251,-15.55,-113.35,2.26
1310,1073187630,0.4644,-1.2339,0.2808,-24.51,-112.07,-3.11
1311,1073192629,0.4658,-1.1982,0.3174,-29.33,-111.04,-8.17
1312,1073197681,0.4604,-1.1938,0.2246,-30.43,-109.51,-12.74
1313,1073202628,0.4668,-1.1934,0.1938,-29.33,-107.62,-17.01
1314,1073207629,0.4800,-1.1704,0.2134,-26.95,-105.55,-20.79
1315,1073212628,0.5020,-1.1445,0.1821,-23.60,-102.93,-24.09
1316,1073217629,0.5249,-1.1157,0.1567,-19.09,-99.94,-26.77
1317,1073222628,0.5317,-1.1016,0.1631,-12.93,-96.65,-28.84
1318,1073227629,0.5513,-1.0928,0.1304,-4.27,-92.56,-30.85
1319,1073232629,0.5693,-1.0957,0.1118,1.28,-90.06,-31.89
1320,1073237628,0.5859,-1.0723,0.1035,7.87,-86.77,-32.93
1321,1073242627,0.6025,-1.0454,0.1069,13.78,-83.29,-33.54
1322,1073247627,0.6191,-1.0332,0.1289,18.84,-80.00,-33.48
1323,1073252627,0.6235,-1.0278,0.1270,22.56,-76.40,-33.29
1324,1073257627,0.6313,-1.0327,0.1172,24.88,-73.17,-33.11
1325,1073262629,0.6421,-1.0278,0.1128,25.73,-70.18,-32.87
1326,1073267629,0.6431,-1.0190,0.1094,25.49,-67.26,-32.50
1327,1073272628,0.6436,-1.0259,0.1074,24.45,-64.82,-32.13
1328,1073277629,0.6499,-1.0781,0.1216,22.50,-62.44,-31.89
1329,1073282628,0.7041,-1.0820,0.1313,17.62,-60.37,-31.71
1330,1073287631,0.7085,-0.9839,0.1245,9.70,-58.60,-32.07
1331,1073292628,0.6445,-0.9976,0.1099,0.61,-57.01,-32.62
1332,1073297630,0.6440,-1.0693,0.1133,-8.17,-55.55,-32.74
1333,1073302628,0.6587,-1.1143,0.0859,-15.79,-54.09,-33.17
1334,1073307627,0.6396,-1.1211,0.0898,-22.44,-52.62,-34.09
1335,1073312629,0.5986,-1.0967,0.1270,-27.62,-50.91,-35.12
1336,1073317629,0.5806,-1.0835,0.1416,-30.98,-49.09,-36.10
1337,1073322629,0.5752,-1.0903,0.1499,-31.83,-47.32,-37.32
1338,1073327672,0.5620,-1.0947,0.1577,-30.06,-45.49,-38.41
1339,1073332627,0.5376,-1.0938,0.1660,-26.04,-43.60,-39.63
1340,1073337627,0.5225,-1.0757,0.1738,-20.24,-41.77,-40.79
1341,1073342627,0.5137,-1.0547,0.1851,-13.41,-40.06,-41.95
1342,1073347627,0.4976,-1.0381,0.2012,-6.04,-38.17,-43.17
1343,1073352629,0.4971,-1.0254,0.2061,1.52,-36.46,-44.09
1344,1073357629,0.5073,-1.0098,0.1963,8.41,-34.88,-44.94
1345,1073362628,0.4956,-0.9785,0.1895,13.78,-33.29,-45.55
1346,1073367629,0.4849,-0.8506,0.1382,16.71,-32.01,-46.28
1347,1073372628,0.4507,-0.8574,0.1611,16.40,-30.49,-46.95
1348,1073377629,0.4263,-0.8823,0.1958,14.09,-28.84,-46.95
1349,1073382628,0.4463,-0.8740,0.1660,11.22,-27.38,-47.32
1350,1073387629,0.4385,-0.8418,0.1821,8.23,-26.16,-47.74
1351,1073392628,0.4277,-0.8101,0.2017,5.18,-24.51,-47.99
1352,1073397630,0.4238,-0.7881,0.1914,2.38,-23.05,-48.05
1353,1073402778,0.4233,-0.7759,0.1909,-0.30,-21.77,-47.99
1354,1073407629,0.4209,-0.7617,0.2124,-2.56,-20.30,-47.62
1355,1073412628,0.4116,-0.7368,0.2012,-4.70,-19.02,-47.20
1356,1073417629,0.4038,-0.7144,0.2061,-6.52,-17.68,-46.77
1357,1073422628,0.3916,-0.6909,0.2065,-7.93,-16.40,-45.91
1358,1073427629,0.3838,-0.6724,0.2041,-9.02,-15.37,-44.94
1359,1073432628,0.3594,-0.6641,0.2036,-9.94,-14.21,-44.09
1360,1073437629,0.3491,-0.6455,0.2183,-10.30,-13.23,-42.93
1361,1073442629,0.3457,-0.6216,0.2119,-9.82,-12.07,-41.77
1362,1073447629,0.3525,-0.6069,0.2197,-8.35,-11.16,-40.55
1363,1073452628,0.3555,-0.5928,0.2271,-5.91,-10.37,-39.09
1364,1073457629,0.3589,-0.5854,0.2246,-2.56,-9.70,-37.50
1365,1073462628,0.3521,-0.5688,0.2246,1.28,-9.09,-35.79
1366,1073467629,0.3359,-0.5586,0.2231,5.24,-8.84,-34.21
1367,1073472628,0.3242,-0.5425,0.2329,8.96,-8.66,-32.68
1368,1073477629,0.3208,-0.5264,0.2378,12.20,-8.35,-31.22
1369,1073482628,0.3135,-0.5132,0.2461,14.76,-8.35,-29.57
1370,1073487629,0.3115,-0.4990,0.2617,16.77,-8.23,-27.87
1371,1073492628,0.3037,-0.4814,0.2642,18.05,-8.35,-26.16
1372,1073497629,0.2954,-0.4648,0.2739,18.84,-8.11,-24.39
1373,1073502628,0.2910,-0.4443,0.2808,19.15,-8.05,-22.62
1374,1073507629,0.2900,-0.4282,0.2876,18.90,-8.05,-20.61
1375,1073512628,0.2964,-0.4155,0.2837,18.23,-7.93,-18.41
1376,1073517629,0.3022,-0.4111,0.2876,17.26,-7.87,-16.22
1377,1073522628,0.3062,-0.4116,0.2788,15.73,-7.93,-13.66
1378,1073527629,0.3057,-0.4077,0.2671,13.72,-7.87,-11.10
1379,1073532627,0.2915,-0.3857,0.2695,11.34,-7.93,-8.48
1380,1073537627,0.2847,-0.3716,0.2739,9.02,-7.93,-5.91
1381,1073542627,0.2778,-0.3677,0.2715,6.83,-7.99,-3.29
1382,1073547629,0.2920,-0.3550,0.2725,5.18,-8.05,-0.49
