# skilleye imu stream v1
# device=xiao_esp32c6 imu=mpu6050 addr=0x68
# rate_hz=200 accel_range_g=16 gyro_range_dps=2000 dlpf_hz=94
# units: accel in g, gyro in deg/s, t_us in microseconds since boot (monotonic)
# no shared clock with the camera -- tap the racket once before each take
# so both recordings share a spike to align on
seq,t_us,ax,ay,az,gx,gy,gz
0,1174137628,0.5396,-1.0864,0.1113,18.17,-2.80,12.26
1,1174142633,0.5273,-1.0869,0.0918,14.39,-3.29,9.94
2,1174147629,0.5220,-1.0972,0.1138,11.22,-3.84,7.74
3,1174152628,0.5449,-1.1094,0.1147,8.23,-4.02,5.98
4,1174157629,0.5728,-1.1143,0.1226,5.37,-4.21,4.57
5,1174162629,0.5947,-1.1084,0.1299,2.50,-3.66,3.78
6,1174167629,0.6016,-1.0967,0.1519,0.06,-2.38,3.29
7,1174172628,0.6230,-1.0845,0.1606,-1.22,0.24,2.93
8,1174177629,0.6353,-1.0708,0.1338,-0.61,3.84,2.44
9,1174182627,0.6074,-1.0645,0.1074,2.01,7.80,1.95
10,1174187630,0.5615,-1.0918,0.1196,5.18,11.46,2.07
11,1174192628,0.5273,-1.1216,0.1206,7.87,15.12,2.87
12,1174197632,0.5215,-1.1123,0.0747,9.09,18.29,4.94
13,1174202627,0.5356,-1.0288,-0.0205,8.60,19.88,7.07
14,1174207627,0.5298,-1.0605,0.0205,6.22,19.51,9.09
15,1174212627,0.4980,-1.0503,0.0864,1.77,17.74,11.34
16,1174217629,0.4673,-0.9395,0.1440,-3.96,15.43,12.80
17,1174222629,0.4458,-0.9414,0.1851,-10.06,13.35,13.48
18,1174227627,0.4268,-0.9224,0.1812,-15.37,12.13,14.21
19,1174232627,0.4243,-0.8809,0.1357,-19.21,11.40,15.00
20,1174237627,0.4077,-0.8701,0.1104,-21.22,11.65,15.91
21,1174242627,0.3647,-0.7983,0.0791,-22.99,11.52,16.83
22,1174247629,0.3374,-0.7686,0.0703,-22.93,11.65,17.13
23,1174252629,0.3154,-0.7705,0.0605,-22.13,11.65,17.44
24,1174257628,0.2954,-0.7783,0.0703,-20.73,11.52,17.99
25,1174262630,0.2832,-0.7642,0.0679,-19.09,11.22,18.60
26,1174267627,0.2769,-0.7427,0.0679,-17.01,10.67,19.63
27,1174272627,0.2949,-0.7266,0.0532,-14.70,10.12,20.85
28,1174277627,0.3101,-0.7178,0.0693,-12.13,9.57,22.38
29,1174282629,0.3115,-0.7021,0.0806,-9.63,8.60,24.27
30,1174287628,0.3213,-0.6841,0.1001,-6.95,7.50,26.22
31,1174292629,0.3413,-0.6816,0.1167,-4.15,6.04,28.72
32,1174297630,0.3652,-0.6953,0.1279,-2.32,5.18,30.55
33,1174302629,0.4019,-0.7153,0.1245,-0.37,4.09,33.05
34,1174307630,0.4204,-0.7271,0.1138,1.28,2.87,35.55
35,1174312627,0.4014,-0.7480,0.1157,2.26,1.46,37.68
36,1174317627,0.3784,-0.7583,0.1255,2.07,-0.06,39.39
37,1174322627,0.3584,-0.7773,0.1348,0.37,-1.52,40.73
38,1174327627,0.3345,-0.7808,0.1470,-2.62,-2.87,41.16
39,1174332629,0.3208,-0.7861,0.1431,-6.77,-3.96,41.22
40,1174337628,0.3086,-0.8018,0.1460,-11.71,-5.12,40.85
41,1174342629,0.2837,-0.8057,0.0977,-16.40,-5.91,40.30
42,1174347627,0.2822,-0.8076,0.1040,-18.90,-6.46,39.82
43,1174352629,0.2993,-0.8066,0.0801,-19.33,-6.65,39.57
44,1174357628,0.3086,-0.8013,0.0498,-18.17,-6.77,39.33
45,1174362629,0.3052,-0.7974,-0.0400,-14.51,-6.89,39.45
46,1174367628,0.3252,-0.8027,-0.0215,-7.20,-6.59,40.00
47,1174372627,0.2993,-0.7759,0.0137,0.73,-5.79,40.67
48,1174377630,0.2480,-0.8105,0.0415,7.56,-4.63,41.46
49,1174382628,0.2900,-0.8271,-0.0552,13.84,-3.78,42.20
50,1174387629,0.3057,-0.8262,-0.0366,20.55,-3.23,42.56
51,1174392629,0.2695,-0.8530,0.0522,26.40,-2.07,42.26
52,1174397627,0.2573,-0.8887,-0.0103,30.18,-0.55,41.46
53,1174402629,0.2559,-0.9170,0.0078,29.76,1.16,40.06
54,1174407629,0.2085,-0.9375,-0.0400,26.52,3.11,38.54
55,1174412627,0.1855,-0.9272,-0.0386,22.56,4.57,36.59
56,1174417627,0.1938,-0.9238,0.0381,18.35,6.28,34.57
57,1174422629,0.2061,-0.8857,0.0059,13.23,7.68,32.62
58,1174427627,0.1812,-0.8970,0.0049,5.61,9.02,30.91
59,1174432629,0.1729,-0.9185,0.0522,-2.13,10.43,29.70
60,1174437628,0.1758,-0.9492,0.0654,-7.62,11.52,28.54
61,1174442629,0.1831,-0.9629,0.0957,-10.55,12.26,27.32
62,1174447629,0.1826,-0.9829,0.1362,-11.16,13.11,26.10
63,1174452629,0.1802,-1.0093,0.1450,-10.18,13.66,24.88
64,1174457629,0.1992,-1.0312,0.1606,-7.74,14.39,23.84
65,1174462628,0.2178,-1.0532,0.1836,-4.39,15.06,22.80
66,1174467630,0.2417,-1.0752,0.1982,-0.61,15.98,21.95
67,1174472627,0.2588,-1.0947,0.2173,3.66,16.71,21.22
68,1174477627,0.2764,-1.1128,0.2344,7.93,17.56,20.67
69,1174482627,0.2974,-1.1338,0.2505,12.26,18.48,20.30
70,1174487627,0.3052,-1.1538,0.2573,16.65,19.33,20.00
71,1174492768,0.3174,-1.1602,0.2471,20.79,20.24,19.88
72,1174497629,0.3320,-1.1797,0.2417,24.39,21.16,19.70
73,1174502629,0.3452,-1.1968,0.2583,27.50,22.26,19.63
74,1174507629,0.3564,-1.1973,0.2505,30.00,23.35,19.57
75,1174512627,0.3667,-1.1978,0.2466,31.95,24.39,19.57
76,1174517631,0.3677,-1.1938,0.2549,33.11,25.37,19.39
77,1174522627,0.3677,-1.1865,0.2529,33.29,26.34,19.15
78,1174527629,0.3823,-1.1831,0.2466,32.56,27.44,18.78
79,1174532627,0.3804,-1.1675,0.2485,30.85,28.29,18.35
80,1174537631,0.3467,-1.1450,0.2476,27.80,29.45,17.74
81,1174542632,0.3394,-1.1465,0.2432,25.24,30.43,17.38
82,1174547629,0.3286,-1.1367,0.2334,22.20,31.28,16.59
83,1174552627,0.3057,-1.1333,0.2261,19.33,32.01,15.67
84,1174557628,0.2705,-1.1245,0.2192,16.46,32.56,14.39
85,1174562633,0.2612,-1.1099,0.2158,14.88,33.05,13.41
86,1174567629,0.2563,-1.0928,0.2168,13.48,33.29,12.20
87,1174572630,0.2446,-1.0835,0.2080,12.50,33.35,11.10
88,1174577628,0.2290,-1.0479,0.1826,12.13,33.66,9.94
89,1174582627,0.2441,-1.0371,0.2148,12.74,33.66,8.78
90,1174587627,0.2603,-1.0513,0.2432,16.40,33.66,7.38
91,1174592628,0.2266,-0.9590,0.0415,19.70,32.99,6.59
92,1174598160,0.2476,-0.9751,0.1289,22.26,32.87,5.24
93,1174602629,0.2568,-0.9727,0.2939,25.79,33.41,4.33
94,1174607629,0.2690,-1.0210,0.1763,30.85,32.62,3.23
95,1174612629,0.2681,-0.9966,0.2319,34.57,31.95,2.38
96,1174617627,0.2778,-0.9468,0.2754,36.46,32.07,1.40
97,1174622629,0.2837,-0.9136,0.2056,36.95,31.65,0.30
98,1174627628,0.2812,-0.8975,0.2178,36.16,31.28,-0.49
99,1174632629,0.2847,-0.8936,0.2637,34.09,31.16,-1.28
100,1174637629,0.2856,-0.8975,0.2271,31.04,30.85,-1.95
101,1174642629,0.2852,-0.8799,0.2148,27.44,30.18,-2.44
102,1174647628,0.2837,-0.8545,0.2549,23.17,29.76,-2.87
103,1174652631,0.2871,-0.8403,0.2441,18.48,29.51,-3.17
104,1174657627,0.2949,-0.8335,0.2358,13.78,29.09,-3.35
105,1174662629,0.3076,-0.8198,0.2563,9.45,28.41,-3.48
106,1174667628,0.3115,-0.8115,0.2646,5.43,27.87,-3.54
107,1174672628,0.3140,-0.8081,0.2510,1.95,27.26,-3.35
108,1174677629,0.3154,-0.8022,0.2593,-0.91,26.52,-2.99
109,1174682627,0.3071,-0.7979,0.2720,-3.48,25.91,-2.68
110,1174687627,0.2935,-0.7949,0.2720,-5.43,25.37,-2.26
111,1174692627,0.2925,-0.7988,0.2861,-6.40,24.70,-1.71
112,1174697629,0.2935,-0.7969,0.2949,-5.98,24.33,-1.22
113,1174702629,0.2910,-0.7974,0.3003,-3.84,23.60,-0.61
114,1174707627,0.2886,-0.8076,0.3042,-0.30,23.05,-0.06
115,1174712629,0.2954,-0.8115,0.3091,4.27,22.32,0.73
116,1174717685,0.3022,-0.8208,0.3140,9.39,21.46,1.46
117,1174722629,0.3066,-0.8345,0.3218,14.02,20.73,2.26
118,1174727628,0.3135,-0.8413,0.3325,17.56,19.94,3.05
119,1174732629,0.3198,-0.8521,0.3433,19.39,19.27,3.78
120,1174737629,0.3257,-0.8677,0.3535,20.06,18.41,4.51
121,1174742629,0.3242,-0.8901,0.3628,19.33,17.62,5.18
122,1174747628,0.3237,-0.9102,0.3726,17.44,16.52,5.79
123,1174752629,0.3252,-0.9292,0.3809,14.57,15.55,6.28
124,1174757627,0.3242,-0.9448,0.3887,10.85,14.57,6.59
125,1174762629,0.3218,-0.9600,0.3979,6.40,13.60,6.83
126,1174767628,0.3169,-0.9800,0.4150,1.34,12.26,6.95
127,1174772629,0.3140,-0.9946,0.4209,-3.41,11.10,7.07
128,1174777628,0.3169,-1.0068,0.4297,-7.80,10.00,7.20
129,1174782629,0.3262,-1.0176,0.4370,-10.79,8.78,7.44
130,1174787628,0.3335,-1.0278,0.4355,-12.50,7.62,7.56
131,1174792627,0.3452,-1.0356,0.4502,-12.32,6.10,7.87
132,1174797629,0.3530,-1.0396,0.4619,-10.91,5.00,8.05
133,1174802629,0.3594,-1.0439,0.4629,-7.87,3.78,8.35
134,1174807627,0.3662,-1.0498,0.4668,-3.78,2.44,8.54
135,1174812627,0.3691,-1.0503,0.4644,0.73,1.40,8.48
136,1174817627,0.3628,-1.0576,0.4722,4.94,-0.06,8.54
137,1174822629,0.3589,-1.0601,0.4712,8.35,-1.34,8.29
138,1174827627,0.3647,-1.0645,0.4707,10.79,-2.56,7.87
139,1174832627,0.3701,-1.0708,0.4736,12.56,-3.84,7.44
140,1174837786,0.3667,-1.0747,0.4707,13.29,-5.00,6.71
141,1174842629,0.3638,-1.0801,0.4800,13.29,-6.46,5.85
142,1174847627,0.3564,-1.0889,0.4722,12.62,-7.87,4.63
143,1174852629,0.3442,-1.0889,0.4590,11.34,-9.39,3.29
144,1174857628,0.3428,-1.0898,0.4624,9.57,-11.04,1.83
145,1174862629,0.3379,-1.0933,0.4624,7.32,-12.74,0.30
146,1174867627,0.3257,-1.0942,0.4536,4.63,-14.51,-1.40
147,1174872629,0.3198,-1.0864,0.4482,1.65,-16.22,-3.17
148,1174877628,0.3154,-1.0845,0.4438,-0.98,-18.17,-5.00
149,1174882627,0.3062,-1.0723,0.4380,-3.17,-19.94,-6.89
150,1174887629,0.3120,-1.0620,0.4390,-4.63,-21.59,-8.66
151,1174892627,0.3159,-1.0547,0.4233,-5.06,-23.35,-10.37
152,1174897628,0.3120,-1.0405,0.4209,-4.70,-25.18,-11.89
153,1174902627,0.3130,-1.0298,0.4116,-3.66,-26.83,-13.29
154,1174907631,0.3179,-1.0142,0.3965,-2.13,-28.35,-14.33
155,1174912628,0.3213,-1.0000,0.3887,-0.24,-29.94,-15.30
156,1174917629,0.3213,-0.9907,0.3721,1.52,-31.34,-16.16
157,1174922627,0.3159,-0.9751,0.3618,3.11,-32.87,-16.71
158,1174927628,0.3145,-0.9546,0.3467,4.51,-34.21,-17.32
159,1174932627,0.3223,-0.9473,0.3364,5.30,-35.37,-17.74
160,1174937627,0.3247,-0.9277,0.3242,5.55,-36.40,-18.05
161,1174943253,0.3164,-0.9072,0.3096,5.12,-37.62,-18.29
162,1174947630,0.3208,-0.8936,0.3003,4.27,-38.35,-18.41
163,1174952629,0.3154,-0.8799,0.2920,3.23,-39.09,-18.41
164,1174957629,0.3154,-0.8711,0.2793,2.26,-39.70,-18.54
165,1174962628,0.3066,-0.8569,0.2729,1.04,-40.30,-18.35
166,1174967629,0.3115,-0.8462,0.2554,0.18,-40.85,-18.23
167,1174972629,0.3101,-0.8438,0.2500,-0.98,-41.28,-18.05
168,1174977630,0.3057,-0.8384,0.2432,-2.13,-41.40,-17.68
169,1174982628,0.3027,-0.8369,0.2368,-3.60,-41.40,-17.32
170,1174987629,0.3037,-0.8423,0.2310,-5.30,-41.40,-16.89
171,1174992629,0.3076,-0.8413,0.2222,-6.83,-41.22,-16.52
172,1174997629,0.3110,-0.8472,0.2148,-8.17,-41.28,-15.91
173,1175002627,0.3203,-0.8496,0.2144,-9.15,-41.22,-15.24
174,1175007630,0.3262,-0.8477,0.2051,-9.57,-40.91,-14.21
175,1175012629,0.3374,-0.8423,0.2188,-10.00,-40.79,-13.11
176,1175017628,0.3496,-0.8467,0.2114,-10.18,-40.67,-11.83
177,1175022629,0.3560,-0.8511,0.2148,-10.18,-40.79,-10.49
178,1175027627,0.3667,-0.8516,0.2090,-9.88,-40.55,-8.84
179,1175032627,0.3750,-0.8530,0.2061,-9.27,-40.49,-7.20
180,1175037629,0.3843,-0.8613,0.2061,-8.60,-40.30,-5.43
181,1175042628,0.3857,-0.8711,0.2041,-7.80,-40.30,-3.84
182,1175047629,0.3823,-0.8813,0.2173,-7.50,-40.18,-2.26
183,1175052629,0.3750,-0.8975,0.2158,-7.56,-40.24,-0.85
184,1175057628,0.3721,-0.9453,0.1196,-8.29,-40.12,0.06
185,1175062627,0.4282,-0.9077,-0.0337,-13.05,-39.33,0.55
186,1175067629,0.3813,-0.8687,-0.2075,-21.40,-37.01,0.91
187,1175072629,0.3438,-0.7720,-1.0039,-21.16,-33.11,2.38
188,1175077628,0.2368,-0.8042,-1.0620,0.37,-24.70,5.79
189,1175082630,0.2041,-0.7314,-1.1729,24.09,-10.98,10.00
190,1175087627,0.2993,-0.7974,-0.9712,42.38,0.37,12.26
191,1175092629,0.2607,-0.8130,-0.3511,43.29,9.63,12.56
192,1175097628,0.2427,-0.8813,0.0039,31.10,14.94,11.28
193,1175102629,0.2290,-0.9531,0.0430,16.77,16.71,10.24
194,1175107627,0.2793,-0.9497,0.1147,3.41,16.77,9.76
195,1175112631,0.3115,-0.9175,0.2407,-9.57,16.95,9.33
196,1175117628,0.3184,-0.9121,0.3438,-21.40,16.77,8.84
197,1175122631,0.2822,-1.0117,0.3452,-28.78,16.10,8.23
198,1175127635,0.2876,-0.9531,0.3892,-33.05,14.76,7.56
199,1175132627,0.3218,-1.0034,0.4961,-33.66,13.23,6.28
200,1175137627,0.2803,-1.1299,0.4839,-31.52,11.16,5.00
201,1175142629,0.2759,-1.2363,0.4473,-28.29,8.96,2.87
202,1175147628,0.2544,-1.2808,0.4062,-23.41,6.83,-0.18
203,1175152627,0.2632,-1.2773,0.4082,-17.68,4.94,-3.48
204,1175157627,0.2646,-1.2617,0.3408,-11.65,3.41,-6.77
205,1175162627,0.2603,-1.2461,0.2690,-5.30,2.26,-9.94
206,1175167627,0.2583,-1.2114,0.2061,0.67,1.46,-12.87
207,1175172629,0.2681,-1.1929,0.1455,6.34,1.65,-15.30
208,1175177629,0.2524,-1.1328,0.0889,11.52,2.07,-17.32
209,1175182629,0.2871,-1.0698,0.0659,15.67,3.11,-18.96
210,1175187629,0.3105,-1.0117,0.0986,18.54,4.27,-20.12
211,1175192628,0.2993,-0.9966,0.1289,20.24,5.55,-20.91
212,1175197631,0.3027,-0.9844,0.1357,20.37,6.71,-21.65
213,1175202627,0.3184,-0.9697,0.1582,19.09,7.62,-22.20
214,1175207994,0.3447,-0.9497,0.1938,16.16,8.48,-22.62
215,1175212630,0.3433,-0.9385,0.2104,13.48,8.90,-22.74
216,1175217629,0.3506,-0.9351,0.2324,8.48,9.27,-22.99
217,1175222631,0.3647,-0.9336,0.2310,5.24,9.39,-23.11
218,1175227627,0.3765,-0.9233,0.2329,2.07,9.57,-23.11
219,1175232627,0.3716,-0.9209,0.2363,0.00,9.57,-23.11
220,1175237627,0.3682,-0.9180,0.2397,-0.61,9.45,-22.87
221,1175242627,0.3608,-0.9019,0.2305,0.49,9.63,-22.56
222,1175248308,0.3579,-0.8809,0.2124,3.41,9.63,-22.01
223,1175252629,0.3633,-0.8687,0.2095,5.98,9.82,-21.52
224,1175257628,0.3687,-0.8491,0.1914,9.21,10.12,-20.43
225,1175262627,0.3760,-0.8398,0.1978,12.26,10.12,-19.39
226,1175267627,0.3755,-0.8203,0.1929,14.45,10.24,-18.11
227,1175272627,0.3701,-0.8149,0.2012,15.61,10.24,-17.07
228,1175277629,0.3608,-0.8115,0.2217,16.04,10.06,-15.73
229,1175282629,0.3535,-0.8169,0.2344,15.55,9.82,-14.63
230,1175287630,0.3452,-0.8306,0.2314,14.02,9.51,-13.84
231,1175292629,0.3428,-0.8257,0.2163,11.59,8.90,-13.17
232,1175297628,0.3447,-0.8184,0.2100,8.41,8.66,-12.50
233,1175302627,0.3340,-0.8169,0.2036,4.70,8.48,-11.77
234,1175307631,0.3164,-0.8237,0.2222,1.40,8.11,-11.16
235,1175312627,0.3027,-0.8379,0.2339,-1.16,8.11,-10.61
236,1175317629,0.3110,-0.8452,0.2437,-2.44,7.80,-10.24
237,1175322629,0.3149,-0.8608,0.2559,-2.07,7.26,-9.88
238,1175327628,0.3130,-0.8818,0.2734,-0.43,7.01,-9.76
239,1175332627,0.3149,-0.9053,0.3013,2.56,6.59,-9.88
240,1175337629,0.3203,-0.9233,0.3008,6.95,6.16,-10.06
241,1175342627,0.3369,-0.9253,0.2676,11.10,5.79,-10.43
242,1175347627,0.3462,-0.9131,0.2549,14.21,5.55,-10.91
243,1175352627,0.3535,-0.9033,0.2466,15.37,5.37,-11.22
244,1175357627,0.3550,-0.8999,0.2471,15.06,5.49,-11.52
245,1175362627,0.3569,-0.8999,0.2437,13.48,5.43,-11.83
246,1175367627,0.3662,-0.9082,0.2471,11.22,5.43,-12.01
247,1175372627,0.3623,-0.9209,0.2544,8.41,5.18,-12.13
248,1175377725,0.3540,-0.9243,0.2554,4.45,4.82,-12.44
249,1175382629,0.3452,-0.9194,0.2559,2.01,4.51,-12.74
250,1175387629,0.3438,-0.9155,0.2559,-0.55,4.09,-13.11
251,1175392628,0.3428,-0.9023,0.2588,-2.20,3.60,-13.54
252,1175397627,0.3398,-0.8940,0.2651,-2.74,3.17,-13.78
253,1175402629,0.3433,-0.8853,0.2681,-2.56,2.74,-13.90
254,1175407863,0.3403,-0.8711,0.2710,-1.95,1.95,-13.66
255,1175412634,0.3472,-0.8584,0.2725,-1.52,1.52,-13.48
256,1175417632,0.3540,-0.8452,0.2739,-0.98,0.67,-12.80
257,1175422631,0.3599,-0.8413,0.2695,-0.49,0.12,-12.44
258,1175427627,0.3735,-0.8359,0.2588,0.55,-0.43,-11.71
259,1175432631,0.3906,-0.8320,0.2651,2.07,-0.91,-10.61
260,1175437629,0.4082,-0.8350,0.2563,3.23,-1.04,-9.82
261,1175442628,0.4160,-0.8364,0.2593,4.63,-1.16,-8.90
262,1175447676,0.4272,-0.8491,0.2534,6.04,-1.46,-8.05
263,1175452658,0.4268,-0.8564,0.2549,7.32,-1.52,-7.20
264,1175457630,0.4238,-0.8550,0.2490,8.41,-1.52,-6.34
265,1175462628,0.4185,-0.8560,0.2417,9.15,-1.34,-5.49
266,1175467696,0.4121,-0.8613,0.2417,9.76,-1.28,-4.76
267,1175472628,0.4150,-0.8652,0.2417,10.37,-1.28,-4.21
268,1175477629,0.4185,-0.8618,0.2383,11.22,-1.04,-3.66
269,1175482628,0.4160,-0.8623,0.2383,12.32,-0.79,-3.23
270,1175487629,0.4136,-0.8638,0.2349,13.29,-0.61,-2.74
271,1175492629,0.4233,-0.8647,0.2354,14.27,-0.43,-2.38
272,1175497629,0.4385,-0.8267,0.2275,14.88,-0.30,-2.07
273,1175502628,0.4824,-0.8652,0.3101,12.80,0.18,-1.52
274,1175507627,0.4487,-0.9097,0.2627,9.63,0.98,-0.73
275,1175512629,0.4058,-0.9014,0.2290,9.39,0.24,-0.49
276,1175517629,0.4004,-0.9028,0.2759,11.89,-0.73,-0.85
277,1175522629,0.4136,-0.9180,0.2979,14.70,-1.22,-1.40
278,1175527715,0.4106,-0.9180,0.2466,17.20,-1.77,-2.26
279,1175532627,0.4009,-0.9253,0.2217,17.26,-2.01,-2.80
280,1175537631,0.4038,-0.9263,0.2217,15.61,-2.44,-3.66
281,1175542629,0.4141,-0.9282,0.2202,13.29,-2.62,-4.21
282,1175547627,0.4287,-0.9497,0.2104,9.21,-3.05,-5.24
283,1175552630,0.4326,-0.9678,0.2061,6.83,-3.23,-5.91
284,1175557629,0.4414,-0.9751,0.2012,4.63,-3.60,-6.65
285,1175562628,0.4546,-0.9844,0.2012,2.87,-4.09,-7.07
286,1175567627,0.4678,-0.9805,0.1934,0.79,-4.45,-7.56
287,1175572627,0.4810,-0.9854,0.1904,-1.77,-4.88,-7.87
288,1175577629,0.4844,-0.9805,0.1797,-4.70,-5.49,-8.17
289,1175582628,0.4819,-0.9795,0.1748,-7.74,-6.10,-8.41
290,1175587629,0.4888,-0.9717,0.1660,-11.10,-6.59,-8.48
291,1175592628,0.4956,-0.9712,0.1519,-14.76,-7.32,-8.54
292,1175597630,0.5054,-0.9756,0.1460,-18.78,-8.05,-8.54
293,1175602627,0.5156,-0.9893,0.1421,-22.99,-8.96,-8.66
294,1175607629,0.5200,-0.9951,0.1509,-26.95,-10.06,-8.90
295,1175612628,0.5293,-0.9980,0.1553,-30.85,-11.10,-9.27
296,1175617629,0.5464,-1.0054,0.1611,-34.39,-12.68,-9.57
297,1175622628,0.5737,-1.0308,0.0708,-37.13,-14.27,-9.94
298,1175627629,0.5884,-1.0542,0.0454,-36.46,-15.67,-10.24
299,1175632629,0.6030,-1.0757,0.0737,-34.57,-15.98,-10.61
300,1175637629,0.6235,-1.1069,-0.0146,-29.76,-16.95,-11.34
301,1175642628,0.6089,-1.1113,-0.0967,-25.49,-17.62,-12.01
302,1175647629,0.6289,-1.1587,-0.0845,-15.91,-16.83,-12.87
303,1175652629,0.6484,-1.1572,-0.1670,-7.93,-15.61,-13.60
304,1175657839,0.7197,-1.1787,-0.1616,4.70,-14.27,-14.70
305,1175662630,0.7046,-1.2124,-0.0698,12.56,-13.17,-15.49
306,1175667627,0.6899,-1.2119,-0.0674,21.83,-11.40,-16.46
307,1175672812,0.7095,-1.2163,-0.0483,30.06,-9.57,-17.62
308,1175677629,0.7173,-1.2241,0.0254,33.23,-8.48,-18.72
309,1175682627,0.7275,-1.2446,0.0947,35.24,-6.89,-20.18
310,1175687627,0.7441,-1.2769,0.1318,35.55,-5.73,-21.95
311,1175692627,0.7598,-1.3105,0.1841,34.21,-4.76,-23.90
312,1175697631,0.7817,-1.3794,0.2339,31.04,-3.35,-27.07
313,1175702627,0.7852,-1.4287,0.2344,27.99,-2.68,-29.63
314,1175707629,0.7065,-1.5376,0.1099,21.46,-1.52,-34.88
315,1175712629,0.6968,-1.5898,0.1382,12.99,-0.73,-40.61
316,1175717629,0.6914,-1.6743,0.2979,4.27,1.22,-47.50
317,1175722628,0.6812,-1.7749,0.1948,-3.72,2.26,-55.00
318,1175727629,0.6660,-1.8384,0.2163,-8.78,2.62,-63.35
319,1175732629,0.6353,-1.8745,0.3325,-11.59,3.11,-72.38
320,1175737629,0.6035,-1.9038,0.3208,-12.26,3.78,-81.95
321,1175742630,0.5322,-1.8892,0.3110,-13.90,4.51,-92.01
322,1175747627,0.5459,-1.9331,0.0024,-15.91,4.57,-100.06
323,1175752627,0.5220,-1.8560,0.1768,-15.67,5.91,-109.82
324,1175757629,0.5024,-1.8315,0.2056,-9.39,7.44,-121.04
325,1175762628,0.4561,-1.8364,0.0693,-1.83,8.05,-128.41
326,1175767630,0.4209,-1.7769,0.0918,12.50,9.15,-138.78
327,1175772629,0.4224,-1.7290,0.1758,26.04,10.18,-146.89
328,1175777627,0.4399,-1.7090,0.1030,37.32,10.98,-152.99
329,1175782628,0.4077,-1.6826,0.1152,53.48,11.52,-161.77
330,1175787629,0.3867,-1.6445,0.1885,64.51,11.95,-168.84
331,1175792627,0.4067,-1.6255,0.1670,70.98,12.26,-174.45
332,1175797627,0.4370,-1.5459,0.1162,75.24,12.38,-181.04
333,1175802627,0.4590,-1.4780,0.1772,75.73,12.87,-187.32
334,1175807627,0.4546,-1.4370,0.2554,74.45,13.54,-193.17
335,1175812627,0.4600,-1.4072,0.2139,71.34,13.96,-198.41
336,1175817627,0.4810,-1.3467,0.2012,67.26,14.21,-203.29
337,1175822627,0.4927,-1.2695,0.2539,62.80,14.82,-207.50
338,1175827627,0.5000,-1.1973,0.2534,58.78,15.67,-211.16
339,1175832627,0.5024,-1.1304,0.2266,55.61,16.16,-214.33
340,1175837629,0.4946,-1.0444,0.2510,52.50,16.89,-217.01
341,1175842672,0.4980,-0.9692,0.2739,50.06,17.56,-218.48
342,1175847629,0.5479,-0.8999,0.2681,47.93,18.48,-219.39
343,1175852627,0.5728,-0.8403,0.2661,46.28,19.09,-219.45
344,1175857627,0.5698,-0.7612,0.2705,44.45,19.82,-219.02
345,1175862627,0.5679,-0.6914,0.2739,42.01,20.37,-218.17
346,1175867627,0.5796,-0.6221,0.2808,39.39,20.98,-216.77
347,1175872627,0.5703,-0.5669,0.2866,36.83,21.52,-215.00
348,1175877730,0.5381,-0.5068,0.2812,33.84,22.32,-212.62
349,1175882632,0.4980,-0.4448,0.2881,31.22,22.74,-210.43
350,1175887628,0.4927,-0.3882,0.2974,28.35,23.17,-208.17
351,1175892629,0.5098,-0.3491,0.3037,25.91,23.66,-205.67
352,1175897627,0.5024,-0.3203,0.2964,24.02,24.09,-202.68
353,1175902630,0.4917,-0.2886,0.3130,22.80,24.39,-199.51
354,1175907628,0.4980,-0.2612,0.3467,22.13,24.70,-196.10
355,1175912629,0.5137,-0.2520,0.3647,22.13,24.70,-192.62
356,1175917627,0.5020,-0.2383,0.3965,22.62,24.51,-189.02
357,1175922629,0.4932,-0.2266,0.4258,23.78,23.90,-185.24
358,1175927628,0.4863,-0.2158,0.4629,24.94,22.93,-181.71
359,1175932627,0.4795,-0.2036,0.4897,26.46,21.83,-178.35
360,1175937631,0.4502,-0.1895,0.5352,28.35,20.37,-175.18
361,1175942627,0.4287,-0.1724,0.5747,31.10,18.84,-172.26
362,1175947627,0.4082,-0.1440,0.5942,34.70,17.13,-169.39
363,1175952627,0.3760,-0.1221,0.6216,39.21,14.82,-166.65
364,1175957714,0.3604,-0.0835,0.6416,43.84,12.13,-164.02
365,1175962627,0.3438,-0.0508,0.6504,48.48,9.45,-161.10
366,1175967669,0.3418,-0.0200,0.6694,52.93,6.71,-157.93
367,1175972629,0.3174,0.0161,0.6685,56.77,3.35,-154.57
368,1175977628,0.2852,0.0615,0.6724,58.96,0.00,-151.10
369,1175982629,0.2700,0.1177,0.6826,58.72,-3.90,-147.44
370,1175987627,0.2637,0.1650,0.6792,56.28,-7.99,-143.60
371,1175992627,0.2593,0.2095,0.6738,52.01,-11.95,-139.27
372,1175997627,0.2373,0.2505,0.6538,46.71,-16.04,-134.57
373,1176002628,0.2280,0.3398,0.6538,40.43,-19.94,-129.63
374,1176007627,0.2246,0.3979,0.6489,33.23,-23.60,-124.27
375,1176012627,0.2290,0.4551,0.6323,26.40,-27.20,-118.17
376,1176017629,0.2393,0.5283,0.6191,20.79,-30.43,-111.46
377,1176022628,0.2056,0.5894,0.6089,17.20,-33.29,-104.21
378,1176027627,0.2349,0.6567,0.5850,15.67,-36.22,-96.22
379,1176032627,0.2705,0.7114,0.5771,16.04,-38.60,-87.26
380,1176037629,0.2646,0.7651,0.5664,18.29,-40.98,-77.74
381,1176042629,0.2417,0.8267,0.5347,22.07,-43.48,-67.44
382,1176047629,0.2183,0.8789,0.5137,26.77,-45.98,-56.89
383,1176052627,0.2100,0.9380,0.4946,31.95,-48.41,-45.79
384,1176057627,0.1987,0.9902,0.4478,36.89,-50.73,-34.21
385,1176062629,0.2041,1.0347,0.4043,40.55,-52.99,-22.01
386,1176067908,0.2119,1.0913,0.3716,42.20,-55.06,-9.21
387,1176072629,0.2056,1.1450,0.3218,41.28,-56.71,4.02
388,1176077628,0.2021,1.1885,0.2686,37.38,-58.17,17.62
389,1176082627,0.2227,1.2271,0.2241,30.12,-59.39,31.65
390,1176087629,0.2368,1.2695,0.1831,19.63,-60.24,46.28
391,1176092627,0.2554,1.3008,0.1401,6.59,-60.67,60.85
392,1176097629,0.2705,1.3213,0.1016,-7.87,-60.85,75.91
393,1176102629,0.2979,1.3359,0.0698,-22.32,-60.55,91.28
394,1176107628,0.3247,1.3423,0.0381,-35.73,-59.88,106.89
395,1176112629,0.3726,1.3330,0.0269,-47.13,-58.96,122.80
396,1176117628,0.4106,1.3169,0.0103,-55.55,-57.44,139.21
397,1176122631,0.4585,1.2759,0.0127,-60.18,-55.43,155.61
398,1176127627,0.4795,1.2280,0.0054,-59.63,-53.05,172.32
399,1176132627,0.4546,1.1606,0.0059,-52.99,-50.61,188.90
400,1176137757,0.4409,1.0723,0.0288,-40.43,-47.80,205.12
401,1176142629,0.4258,0.9795,0.0425,-23.78,-44.82,220.73
402,1176147628,0.3750,0.8921,0.0566,-5.00,-41.65,235.43
403,1176152629,0.3354,0.7881,0.0737,14.33,-38.29,248.78
404,1176157629,0.3325,0.6509,0.0898,32.20,-34.82,261.34
405,1176162629,0.3325,0.5122,0.1016,47.99,-31.34,272.80
406,1176167628,0.3291,0.3696,0.1050,60.91,-28.17,283.17
407,1176172883,0.3252,0.2134,0.1123,69.94,-25.30,292.20
408,1176177629,0.3574,0.0449,0.1460,74.63,-22.74,300.24
409,1176182629,0.3794,-0.1001,0.1841,75.67,-20.43,306.65
410,1176187629,0.3408,-0.2568,0.2222,74.33,-18.60,310.91
411,1176192628,0.3008,-0.4351,0.2803,71.95,-17.32,313.23
412,1176197631,0.2778,-0.6191,0.3242,70.12,-16.52,313.54
413,1176202629,0.2451,-0.8276,0.3887,69.45,-16.28,311.89
414,1176207629,0.2178,-1.0498,0.4595,69.39,-16.95,308.11
415,1176212628,2.2681,-10.7983,-1.6167,54.51,-16.89,280.24
416,1176217629,1.4487,-10.8276,-0.6318,7.32,-16.04,132.93
417,1176222627,1.2500,-4.2842,-0.0400,-54.39,-8.05,48.35
418,1176227627,1.0396,-2.4023,-0.6792,-108.78,-1.59,-2.74
419,1176232627,1.0918,-2.5713,-0.5859,-121.59,-5.67,-28.11
420,1176237627,0.9321,-2.5591,0.5693,-98.11,-8.48,-38.23
421,1176242627,0.8579,-2.0947,0.7515,-61.95,-8.90,-44.15
422,1176247629,0.8652,-1.4492,0.3096,-26.16,-12.32,-50.79
423,1176252629,0.8965,-1.1348,0.5215,3.54,-14.70,-58.35
424,1176257627,0.9341,-1.2959,0.5801,24.21,-14.88,-65.91
425,1176262627,0.9702,-1.5625,0.2734,34.82,-16.52,-73.23
426,1176267629,0.9810,-1.5874,0.3198,35.12,-17.68,-80.85
427,1176272629,0.9907,-1.4170,0.4106,27.26,-17.32,-88.78
428,1176277629,1.0176,-1.2490,0.2285,13.11,-17.07,-96.77
429,1176282628,1.0547,-1.1655,0.2158,-4.94,-16.71,-104.45
430,1176287629,1.0874,-1.1523,0.3164,-23.66,-15.12,-111.59
431,1176292629,1.1040,-1.1655,0.2529,-40.61,-13.17,-117.93
432,1176297629,1.0835,-1.1074,0.2080,-52.93,-11.59,-123.60
433,1176302628,1.0703,-1.0249,0.2812,-59.09,-9.51,-128.90
434,1176308138,1.0586,-0.9575,0.2642,-59.02,-7.26,-133.60
435,1176312686,1.0156,-0.9087,0.2314,-53.66,-5.61,-137.87
436,1176317627,0.9609,-0.8540,0.2749,-44.76,-3.78,-141.77
437,1176322628,0.9160,-0.7983,0.2822,-34.27,-1.83,-145.30
438,1176327627,0.8965,-0.7227,0.2319,-23.29,-0.37,-148.23
439,1176332627,0.8403,-0.6357,0.2368,-13.90,1.28,-150.98
440,1176337647,0.7778,-0.5210,0.2437,-7.26,2.99,-153.29
441,1176342687,0.7456,-0.4082,0.2139,-3.23,4.82,-155.37
442,1176347632,0.7305,-0.3105,0.1943,-1.28,6.59,-156.83
443,1176352629,0.7095,-0.2002,0.1714,-0.91,8.54,-157.44
444,1176357629,0.6753,-0.0850,0.1440,-2.38,10.12,-157.13
445,1176362627,0.6440,0.0317,0.1377,-5.43,12.01,-155.98
446,1176367664,0.6221,0.1499,0.1392,-9.33,13.96,-153.78
447,1176372629,0.5825,0.2715,0.1367,-13.66,15.98,-150.67
448,1176377629,0.5317,0.3999,0.1211,-17.13,18.05,-146.46
449,1176382629,0.4946,0.5332,0.1265,-19.27,20.00,-141.16
450,1176387628,0.4961,0.6655,0.1250,-19.02,22.20,-134.45
451,1176392629,0.5029,0.7896,0.1089,-15.67,24.51,-126.10
452,1176397628,0.5186,0.9106,0.0942,-8.78,26.71,-116.04
453,1176402627,0.5303,1.0444,0.0776,1.22,29.27,-104.15
454,1176407629,0.5459,1.1753,0.0557,13.72,31.77,-90.49
455,1176412630,0.5464,1.2998,0.0381,27.44,34.21,-75.49
456,1176417628,0.5391,1.4248,0.0283,40.37,37.50,-58.96
457,1176422629,0.5229,1.5352,0.0244,50.85,40.73,-41.28
458,1176427627,0.5293,1.6431,0.0288,57.32,44.39,-22.74
459,1176432656,0.5278,1.7100,0.0308,59.88,48.35,-3.29
460,1176437627,0.4966,1.7495,0.0317,59.45,51.95,16.83
461,1176442631,0.4541,1.7676,0.0400,57.74,55.24,37.50
462,1176447627,0.3867,1.7593,0.0498,55.49,57.68,58.54
463,1176452627,0.3330,1.7354,0.0586,53.23,59.39,79.82
464,1176457664,0.2832,1.7036,0.0923,50.79,60.43,100.67
465,1176462627,0.2310,1.6523,0.1221,48.35,60.61,121.34
466,1176467627,0.1729,1.5933,0.1567,46.28,60.30,141.59
467,1176472627,0.1406,1.5039,0.1831,45.12,59.51,161.28
468,1176477627,0.1030,1.4126,0.1992,44.88,58.05,180.49
469,1176482627,0.0713,1.3174,0.2207,44.88,56.34,199.21
470,1176487631,0.0615,1.2246,0.2393,44.09,54.45,217.32
471,1176492629,0.0601,1.1338,0.2607,41.77,52.38,234.70
472,1176497629,0.0596,1.0220,0.2817,37.62,50.37,251.52
473,1176502629,0.0801,0.8901,0.3066,31.34,48.29,267.74
474,1176507629,0.0996,0.7515,0.3311,23.29,46.28,283.35
475,1176512629,0.0981,0.6172,0.3555,13.78,43.84,297.87
476,1176517628,0.0859,0.4614,0.3843,3.11,41.22,311.16
477,1176522629,0.0679,0.2998,0.4277,-8.17,37.93,322.99
478,1176527628,0.0693,0.1172,0.4751,-19.51,33.96,333.35
479,1176532630,0.0615,-0.0337,0.5024,-30.00,29.27,341.83
480,1176537628,-0.0073,-0.6538,0.5327,-39.09,23.78,347.93
481,1176542629,1.6870,-5.2168,-1.1172,12.50,23.48,237.56
482,1176547629,0.9365,-3.3687,0.8857,18.78,15.67,101.71
483,1176552629,0.8872,-8.0952,0.4897,-25.06,27.62,46.52
484,1176557628,1.1479,-6.7314,-0.4800,-62.38,20.24,15.43
485,1176562726,1.0576,-2.0615,0.6880,-82.13,16.59,-0.37
486,1176567629,0.8657,1.0093,0.8799,-91.59,18.17,-10.18
487,1176572627,0.7461,0.6963,0.2041,-95.37,14.57,-15.79
488,1176577628,0.6787,-1.0713,0.5083,-96.40,10.24,-15.79
489,1176582631,0.7280,-1.9624,0.7959,-92.87,8.96,-13.17
490,1176587627,0.7646,-1.2788,0.3491,-84.88,6.46,-10.98
491,1176592627,0.7285,-0.1323,0.2905,-77.62,3.84,-8.84
492,1176597629,0.7046,0.2729,0.5347,-72.56,4.09,-6.22
493,1176602628,0.7021,-0.1157,0.3481,-69.15,3.84,-2.50
494,1176607627,0.7080,-0.6089,0.2065,-67.01,2.44,2.13
495,1176612627,0.6997,-0.6914,0.3521,-66.28,1.89,6.89
496,1176617630,0.7012,-0.4302,0.2983,-66.34,2.13,10.85
497,1176622629,0.6934,-0.1904,0.1768,-67.26,1.83,14.15
498,1176627628,0.6733,-0.1997,0.2563,-69.76,1.77,17.32
499,1176632629,0.6606,-0.3711,0.2773,-74.02,2.13,20.49
500,1176637628,0.6426,-0.4971,0.1870,-79.57,1.77,23.60
501,1176642629,0.6123,-0.4717,0.1968,-86.40,1.34,26.28
502,1176647628,0.5815,-0.3921,0.2324,-93.78,1.10,28.66
503,1176652629,0.5439,-0.3691,0.1982,-101.71,0.79,30.73
504,1176657628,0.5020,-0.4126,0.1836,-109.63,0.00,32.99
505,1176662629,0.4546,-0.4517,0.2295,-116.16,-0.18,35.30
506,1176667946,0.4512,-0.4453,0.2046,-119.63,-0.30,37.56
507,1176673066,0.4868,-0.4038,0.1748,-118.72,-0.61,39.70
508,1176677629,0.5176,-0.3677,0.1851,-113.54,-0.98,42.20
509,1176682629,0.5308,-0.3569,0.1763,-104.88,-1.10,45.18
510,1176687629,0.5474,-0.3726,0.1636,-93.78,-1.22,48.54
511,1176692627,0.5669,-0.3750,0.1709,-81.28,-1.34,52.32
512,1176697630,0.5864,-0.3770,0.1787,-68.29,-1.34,56.10
513,1176702629,0.6084,-0.3926,0.1743,-55.55,-1.04,60.06
514,1176707628,0.6069,-0.4067,0.1616,-43.78,-0.61,63.84
515,1176712629,0.5635,-0.4258,0.1621,-34.21,-0.43,67.20
516,1176717627,0.5381,-0.4453,0.1577,-27.74,-0.24,70.12
517,1176722627,0.5239,-0.4463,0.1631,-25.24,0.12,72.32
518,1176727628,0.5103,-0.4536,0.1782,-26.16,0.55,73.90
519,1176732629,0.4932,-0.4727,0.1768,-30.12,1.10,74.94
520,1176737629,0.4805,-0.4976,0.1772,-36.04,1.71,75.79
521,1176742629,0.4648,-0.5264,0.1831,-43.23,2.32,76.77
522,1176747629,0.4502,-0.5356,0.1880,-50.18,2.87,77.68
523,1176752627,0.4556,-0.5322,0.1934,-56.28,3.23,78.48
524,1176757627,0.4814,-0.5317,0.1943,-60.18,3.72,79.45
525,1176762629,0.5342,-0.5469,0.2007,-61.10,4.02,80.61
526,1176767628,0.5874,-0.5884,0.1987,-58.90,4.27,81.95
527,1176772629,0.6138,-0.6304,0.1899,-53.72,4.45,83.84
528,1176777629,0.6035,-0.6655,0.2056,-46.65,4.45,85.37
529,1176782627,0.5684,-0.6929,0.2197,-38.72,4.27,86.22
530,1176787627,0.5288,-0.7183,0.2397,-30.73,4.15,86.22
531,1176792627,0.5083,-0.7495,0.2456,-23.54,3.78,86.71
532,1176797627,0.5200,-0.7886,0.2539,-17.13,3.78,86.65
533,1176802627,0.5464,-0.8262,0.2598,-11.83,3.54,86.22
534,1176807629,0.5752,-0.8423,0.2681,-7.87,3.35,85.49
535,1176812629,0.5981,-0.8599,0.2734,-5.18,3.29,84.63
536,1176817628,0.6162,-0.8716,0.2847,-3.60,3.11,84.02
537,1176822628,0.6333,-0.8760,0.2910,-2.68,3.17,83.17
538,1176827627,0.6587,-0.8838,0.2925,-2.01,3.11,82.32
539,1176832627,0.6763,-0.8975,0.2871,-0.91,3.11,81.46
540,1176837629,0.6880,-0.9102,0.2866,0.73,2.99,80.61
541,1176842629,0.7178,-0.9316,0.2969,3.29,2.74,79.88
542,1176847628,0.7422,-0.9443,0.2998,6.71,2.32,79.21
543,1176852629,0.7700,-0.9683,0.3066,10.67,1.95,78.48
544,1176857628,0.7754,-0.9897,0.3164,15.43,1.28,77.62
545,1176862629,0.7646,-1.0166,0.3286,20.43,0.30,76.52
546,1176867629,0.7563,-1.0454,0.3296,25.37,-0.85,75.00
547,1176872629,0.7412,-1.0640,0.3403,29.51,-2.13,73.23
548,1176877628,0.7251,-1.0806,0.3535,32.32,-3.84,70.85
549,1176882627,0.7119,-1.0879,0.3623,33.72,-5.49,68.17
550,1176887629,0.7041,-1.1021,0.3730,33.90,-7.32,64.88
551,1176892629,0.7007,-1.1089,0.3794,33.05,-9.45,61.34
552,1176897629,0.6919,-1.1245,0.3745,32.07,-11.52,57.56
553,1176902627,0.6851,-1.1270,0.3760,31.04,-13.66,54.02
554,1176907627,0.6904,-1.1265,0.3779,30.18,-15.85,50.43
555,1176912627,0.7183,-1.1377,0.3804,29.88,-18.23,46.83
556,1176917629,0.7461,-1.1509,0.3843,30.30,-20.49,43.60
557,1176922628,0.7725,-1.1572,0.3926,31.46,-22.99,40.55
558,1176927627,0.7847,-1.1675,0.3950,33.48,-25.43,37.38
559,1176932627,0.7793,-1.1763,0.3989,35.79,-28.23,34.21
560,1176937627,0.7681,-1.1855,0.4043,38.05,-31.16,30.85
561,1176942629,0.7676,-1.1938,0.3945,39.94,-34.15,27.38
562,1176947629,0.7705,-1.1992,0.3916,41.28,-37.56,24.02
563,1176952629,0.7710,-1.1924,0.3989,41.34,-40.73,20.61
564,1176957629,0.7705,-1.1777,0.4087,39.82,-44.15,16.95
565,1176962629,0.7510,-1.1729,0.4077,37.32,-47.62,13.29
566,1176967629,0.7402,-1.1626,0.4053,34.82,-50.91,9.70
567,1176972629,0.7432,-1.1499,0.3940,33.29,-54.39,6.34
568,1176977628,0.7510,-1.1318,0.3813,32.80,-57.74,3.17
569,1176982627,0.7495,-1.1147,0.3774,33.60,-61.34,0.30
570,1176987627,0.7490,-1.1069,0.3716,35.12,-64.70,-2.68
571,1176992628,0.7529,-1.1006,0.3716,37.44,-68.11,-5.24
572,1176997627,0.7422,-1.0996,0.3613,39.63,-71.65,-7.74
573,1177002627,0.7300,-1.0967,0.3574,41.40,-75.12,-10.06
574,1177007627,0.7295,-1.0786,0.3555,41.71,-78.60,-12.44
575,1177012631,0.7319,-1.0664,0.3564,40.12,-82.01,-14.70
576,1177017628,0.7476,-1.0571,0.3521,36.83,-85.30,-16.95
577,1177022629,0.7690,-1.0430,0.3491,31.77,-88.54,-19.15
578,1177027628,0.7642,-1.0322,0.3486,25.43,-91.59,-21.34
579,1177032629,0.7632,-1.0220,0.3521,18.96,-94.45,-23.60
580,1177037628,0.7466,-1.0522,0.2832,13.11,-97.26,-25.91
581,1177042627,0.8838,-1.0059,0.2407,3.78,-96.77,-28.23
582,1177047629,0.8853,-0.9609,-0.4072,-9.57,-96.10,-30.55
583,1177052627,0.8228,-0.8994,-0.3911,-21.10,-94.70,-32.20
584,1177057631,0.8262,-0.8970,-0.1353,-28.48,-90.49,-33.96
585,1177062628,0.7661,-1.0000,-0.4575,-30.24,-86.71,-35.49
586,1177067631,0.6978,-0.9912,-0.4888,-26.04,-84.39,-36.59
587,1177072692,0.7305,-1.0977,-0.3452,-17.26,-80.85,-38.48
588,1177077627,0.6953,-1.0928,-0.3862,-5.91,-78.05,-40.43
589,1177082627,0.7939,-0.9795,-0.3643,9.27,-75.43,-41.52
590,1177087627,0.7803,-0.8848,-0.3809,27.32,-72.44,-41.77
591,1177092627,0.7275,-0.9224,-0.1846,44.88,-69.15,-41.71
592,1177097632,0.7842,-0.9419,-0.0176,58.05,-66.83,-41.83
593,1177102629,0.8618,-0.9175,0.1411,63.84,-65.85,-42.99
594,1177108373,0.9033,-0.8975,0.3052,61.34,-65.24,-44.33
595,1177112631,0.9370,-0.8599,0.3706,55.73,-65.18,-44.94
596,1177117628,0.9907,-0.8647,0.4087,47.26,-65.49,-45.49
597,1177122754,1.0132,-0.8765,0.4009,38.54,-66.34,-45.91
598,1177127629,1.0103,-0.8916,0.3438,31.59,-66.71,-46.22
599,1177132629,0.9912,-0.9053,0.2388,28.17,-66.89,-46.65
600,1177137629,0.9570,-0.9102,0.1533,28.23,-66.83,-47.13
601,1177142628,0.9048,-0.9346,0.0859,30.73,-66.46,-47.44
602,1177147629,0.8594,-0.9946,0.0469,33.78,-66.28,-48.17
603,1177152629,0.8311,-1.0039,0.0781,35.67,-66.40,-49.70
604,1177157629,0.8232,-1.0034,0.1226,37.01,-66.89,-52.01
605,1177162629,0.8276,-1.0059,0.1787,37.32,-67.87,-54.45
606,1177167628,0.8203,-1.0249,0.2246,36.89,-69.21,-57.44
607,1177172629,0.7983,-1.0127,0.2378,35.18,-70.73,-60.85
608,1177177629,0.8018,-0.9829,0.2393,32.68,-72.26,-64.70
609,1177182628,0.8188,-0.9570,0.2627,30.37,-73.54,-68.84
610,1177187630,0.8281,-0.9165,0.2544,29.45,-74.33,-73.05
611,1177192629,0.8467,-0.8911,0.2441,30.79,-75.06,-76.95
612,1177197630,0.8701,-0.8604,0.2515,34.45,-75.49,-80.67
613,1177202991,0.8950,-0.8369,0.2534,39.45,-75.73,-84.09
614,1177207629,0.9028,-0.8301,0.2505,44.88,-76.22,-87.56
615,1177212629,0.9097,-0.8286,0.2612,49.15,-76.77,-90.91
616,1177217629,0.9268,-0.8096,0.2637,51.77,-77.74,-94.27
617,1177222627,0.9370,-0.7944,0.2563,52.32,-79.02,-97.50
618,1177227629,0.9248,-0.7886,0.2485,51.34,-80.73,-100.61
619,1177232629,0.9429,-0.7837,0.2549,49.21,-82.62,-103.78
620,1177237629,0.9492,-0.7603,0.2100,45.18,-84.45,-106.65
621,1177242667,0.9609,-0.7114,0.1938,40.00,-86.34,-109.27
622,1177247855,0.9824,-0.6597,0.1992,34.63,-87.93,-111.89
623,1177252628,1.0127,-0.6104,0.2134,29.57,-89.33,-114.21
624,1177257627,1.0532,-0.5571,0.2256,25.18,-90.85,-116.22
625,1177262629,1.0879,-0.5054,0.2432,21.34,-91.52,-117.74
626,1177267627,1.1123,-0.4561,0.2642,18.60,-92.74,-119.15
627,1177272629,1.1284,-0.4360,0.2695,17.87,-93.29,-120.43
628,1177277742,1.1558,-0.4233,0.2832,19.45,-93.29,-121.71
629,1177282627,1.1919,-0.4263,0.2925,23.54,-93.41,-123.11
630,1177287627,1.2183,-0.4346,0.2886,29.27,-93.72,-124.45
631,1177292627,1.2280,-0.4414,0.2861,35.85,-93.54,-125.79
632,1177297629,1.2471,-0.4570,0.2935,42.50,-93.41,-127.13
633,1177302629,1.2764,-0.4771,0.3003,48.35,-93.84,-128.48
634,1177307629,1.2988,-0.5034,0.2866,52.99,-94.15,-130.12
635,1177312628,1.2949,-0.5317,0.2695,55.85,-95.30,-131.89
636,1177317627,1.2959,-0.5562,0.2627,57.13,-96.40,-133.72
637,1177322627,1.2910,-0.5786,0.2627,56.83,-97.56,-135.91
638,1177327627,1.2944,-0.5986,0.2563,55.18,-98.96,-138.29
639,1177332627,1.2935,-0.6221,0.2646,53.11,-100.67,-140.67
640,1177337628,1.2964,-0.6289,0.2734,50.98,-102.62,-143.23
641,1177342627,1.2837,-0.6367,0.2798,49.09,-104.57,-146.10
642,1177347627,1.2749,-0.6499,0.2949,46.83,-106.83,-149.15
643,1177352627,1.2729,-0.6646,0.2969,44.39,-109.21,-152.13
644,1177357628,1.2759,-0.6694,0.2822,41.95,-111.40,-155.12
645,1177362627,1.2646,-0.6621,0.2817,40.12,-113.60,-157.93
646,1177367630,1.2529,-0.6538,0.2866,39.09,-115.79,-160.67
647,1177372635,1.2383,-0.6465,0.2891,39.33,-117.99,-163.23
648,1177377716,1.2354,-0.6318,0.2578,41.10,-119.94,-165.37
649,1177382627,1.2378,-0.6260,0.2329,44.15,-121.59,-167.26
650,1177387627,1.2217,-0.6270,0.2109,47.80,-123.17,-168.78
651,1177392627,1.1943,-0.6387,0.1982,50.73,-124.70,-170.37
652,1177397627,1.1753,-0.6509,0.1768,52.44,-126.34,-172.20
653,1177402628,1.1479,-0.6777,0.1582,52.93,-127.87,-174.27
654,1177407628,1.1333,-0.7065,0.1323,52.44,-129.51,-176.46
655,1177412627,1.1030,-0.7295,0.1289,51.16,-131.16,-179.27
656,1177417627,1.0718,-0.7583,0.1177,49.27,-132.99,-182.50
657,1177422627,1.0430,-0.7725,0.0947,46.89,-134.70,-186.28
658,1177427627,1.0229,-0.7686,0.0767,43.78,-136.28,-190.37
659,1177432632,0.9937,-0.7446,0.0752,40.12,-137.74,-194.27
660,1177437628,0.9678,-0.7144,0.0581,35.85,-139.51,-198.17
661,1177442629,0.9434,-0.6782,0.0342,31.59,-141.22,-201.65
662,1177447627,0.9302,-0.6470,0.0083,27.68,-142.87,-204.70
663,1177452629,0.9268,-0.6123,-0.0215,24.39,-143.84,-207.32
664,1177457948,0.9390,-0.5732,-0.0513,22.38,-144.45,-209.45
665,1177462629,0.9707,-0.5464,-0.0825,21.65,-144.70,-210.85
666,1177467628,1.0127,-0.5322,-0.0884,22.01,-144.76,-211.83
667,1177472629,1.0645,-0.5361,-0.0869,22.80,-144.76,-211.95
668,1177477627,1.1035,-0.5352,-0.0742,23.29,-144.88,-211.89
669,1177482629,1.1270,-0.5483,-0.0649,23.60,-144.88,-211.59
670,1177487629,1.1484,-0.5698,-0.0430,24.21,-144.51,-211.40
671,1177492629,1.1582,-0.5991,-0.0332,25.49,-144.21,-211.40
672,1177497628,1.1494,-0.6177,-0.0239,26.22,-143.66,-211.59
673,1177502629,1.1191,-0.6279,-0.0015,25.43,-142.87,-212.38
674,1177507628,1.0786,-0.6284,0.0151,23.35,-142.07,-213.78
675,1177512627,1.0215,-0.6289,0.0146,21.04,-140.85,-215.67
676,1177517998,0.9844,-0.6372,0.0215,19.82,-139.76,-218.11
677,1177522663,0.9702,-0.6382,0.0161,19.45,-138.48,-220.73
678,1177527628,0.9624,-0.6484,0.0015,19.63,-137.26,-223.41
679,1177532631,0.9727,-0.6426,0.0020,20.61,-136.16,-225.98
680,1177537627,1.0010,-0.6421,-0.0205,21.89,-135.49,-227.87
681,1177542630,1.0127,-0.6299,-0.0322,24.15,-134.94,-229.39
682,1177547887,1.0215,-0.6191,-0.0522,26.71,-134.82,-229.94
683,1177552629,1.0215,-0.6074,-0.0825,28.96,-135.12,-230.00
684,1177557628,1.0088,-0.6025,-0.1299,30.37,-135.43,-229.33
685,1177562629,0.9980,-0.5923,-0.1514,29.57,-136.10,-228.48
686,1177567630,0.9844,-0.5874,-0.1792,26.83,-136.77,-227.50
687,1177572629,0.9766,-0.5840,-0.2183,23.60,-137.50,-226.34
688,1177577629,0.9326,-0.5747,-0.2471,20.85,-137.87,-225.18
689,1177582629,0.8828,-0.5620,-0.2827,18.66,-137.93,-224.21
690,1177587627,0.8438,-0.5479,-0.3071,16.83,-137.44,-223.35
691,1177592629,0.8203,-0.5562,-0.3418,15.73,-136.34,-222.68
692,1177597896,0.7715,-0.5513,-0.3677,15.06,-134.76,-222.56
693,1177602629,0.7012,-0.5332,-0.3853,14.02,-132.68,-222.62
694,1177607629,0.6367,-0.5093,-0.4238,12.62,-129.82,-222.99
695,1177612627,0.5659,-0.4683,-0.4683,11.65,-126.52,-223.72
696,1177617627,0.4956,-0.4141,-0.4956,10.98,-122.87,-224.27
697,1177622631,0.4365,-0.3516,-0.5303,10.49,-118.35,-224.94
698,1177627628,0.3877,-0.2817,-0.5566,10.49,-113.41,-225.24
699,1177632631,0.3628,-0.2266,-0.5864,11.10,-108.17,-225.43
700,1177637629,0.3511,-0.1807,-0.6143,12.62,-102.80,-225.00
701,1177642629,0.3662,-0.1572,-0.6611,15.49,-97.26,-223.78
702,1177647629,0.3589,-0.1382,-0.7109,18.54,-91.77,-221.83
703,1177652629,0.3145,-0.1182,-0.7573,19.82,-86.34,-219.45
704,1177657629,0.2935,-0.1089,-0.8042,19.15,-81.04,-216.83
705,1177662629,0.2905,-0.1016,-0.8472,17.68,-75.85,-214.02
706,1177667629,0.2866,-0.0972,-0.8716,16.59,-70.85,-210.91
707,1177672629,0.2817,-0.1025,-0.8770,16.10,-65.98,-207.68
708,1177677630,0.2798,-0.0942,-0.8760,15.24,-61.52,-204.45
709,1177682629,0.2583,-0.0771,-0.8706,12.87,-57.50,-201.59
710,1177687629,0.2148,-0.0518,-0.8584,9.82,-53.66,-198.78
711,1177692629,0.1685,-0.0332,-0.8379,7.26,-50.30,-196.40
712,1177697627,0.1309,-0.0312,-0.7949,6.40,-47.38,-194.15
713,1177702627,0.0874,-0.0073,-0.7695,5.91,-44.88,-192.13
714,1177707628,0.0640,0.0400,-0.7520,5.49,-42.56,-190.24
715,1177712627,0.0444,0.0757,-0.7397,5.91,-40.49,-188.05
716,1177717631,0.0376,0.1021,-0.7246,7.44,-38.66,-185.24
717,1177722629,0.0161,0.1157,-0.7212,8.48,-37.26,-182.07
718,1177727629,-0.0151,0.1392,-0.7070,8.11,-36.28,-178.96
719,1177732628,-0.0312,0.1440,-0.7100,6.34,-35.55,-175.79
720,1177737627,-0.0400,0.1387,-0.7104,5.12,-34.63,-172.62
721,1177742629,-0.0625,0.1411,-0.6973,4.21,-33.90,-169.33
722,1177747629,-0.1099,0.1499,-0.6729,3.23,-33.48,-166.28
723,1177752628,-0.1382,0.1709,-0.6631,1.59,-33.05,-163.78
724,1177757629,-0.1489,0.1826,-0.6519,0.49,-32.01,-161.46
725,1177762629,-0.1289,0.2051,-0.6465,0.43,-30.98,-159.21
726,1177767629,-0.1025,0.2329,-0.6079,0.91,-30.12,-156.52
727,1177772629,-0.0737,0.2632,-0.5796,1.71,-28.96,-153.60
728,1177777628,-0.0371,0.2769,-0.5498,3.60,-28.17,-150.18
729,1177782629,0.0078,0.2832,-0.5068,6.16,-27.44,-146.46
730,1177787627,0.0527,0.2739,-0.5059,9.09,-27.07,-142.32
731,1177792630,0.0874,0.2690,-0.5073,12.26,-27.20,-137.38
732,1177797627,0.0645,0.2769,-0.4800,13.96,-27.44,-132.32
733,1177802629,0.0181,0.2627,-0.4624,14.15,-27.93,-127.38
734,1177807627,-0.0430,0.2354,-0.4673,13.60,-28.60,-122.93
735,1177812630,-0.1191,0.2134,-0.4663,11.95,-29.21,-118.90
736,1177817628,-0.2100,0.2129,-0.4512,8.35,-30.00,-115.98
737,1177823070,-0.2803,0.1914,-0.4414,4.02,-30.61,-114.15
738,1177827790,-0.2959,0.1719,-0.4482,1.71,-30.79,-112.87
739,1177832629,-0.2847,0.1670,-0.4717,2.38,-30.67,-111.65
740,1177837627,-0.2744,0.1733,-0.4810,5.00,-30.43,-110.06
741,1177842992,-0.2495,0.2065,-0.4722,7.20,-30.12,-107.99
742,1177847629,-0.2246,0.2393,-0.4893,8.60,-29.88,-105.37
743,1177852628,-0.1729,0.2471,-0.5288,11.34,-29.33,-101.59
744,1177857628,-0.1191,0.2510,-0.5518,15.12,-28.60,-97.01
745,1177862630,-0.1084,0.2544,-0.5576,17.99,-27.74,-91.95
746,1177867627,-0.1426,0.2686,-0.5557,18.60,-26.77,-86.65
747,1177872629,-0.1929,0.2783,-0.5781,17.93,-25.73,-81.95
748,1177877629,-0.2534,0.2905,-0.5859,17.44,-24.27,-77.62
749,1177882631,-0.3130,0.2837,-0.5933,17.62,-22.32,-73.84
750,1177887628,-0.3809,0.2729,-0.5928,18.90,-20.43,-70.85
751,1177892629,-0.4580,0.2856,-0.5688,20.61,-18.35,-68.54
752,1177897627,-0.5078,0.3008,-0.5610,22.74,-16.52,-66.59
753,1177902629,-0.5083,0.2876,-0.5840,26.95,-14.39,-63.72
754,1177907628,-0.5259,0.3086,-0.5933,31.22,-12.62,-60.30
755,1177912630,-0.5356,0.3257,-0.5942,32.38,-11.28,-56.40
756,1177917629,-0.5024,0.3403,-0.5806,30.49,-10.43,-52.07
757,1177922630,-0.4414,0.3188,-0.5996,29.27,-9.82,-46.52
758,1177927629,-0.3701,0.2734,-0.6084,31.52,-9.02,-40.00
759,1177932629,-0.3296,0.2168,-0.6084,35.55,-8.72,-32.68
760,1177937629,-0.2861,0.1611,-0.6123,38.54,-8.23,-25.06
761,1177942629,-0.2471,0.0981,-0.6235,40.00,-7.99,-16.71
762,1177947648,-0.2495,0.0498,-0.6113,40.12,-7.68,-7.80
763,1177952629,-0.2715,0.0176,-0.5947,40.18,-7.32,1.59
764,1177957629,-0.2939,0.0054,-0.5698,41.04,-7.13,11.40
765,1177962628,-0.3906,0.0059,-0.5571,42.62,-6.71,21.95
766,1177967627,-0.6338,0.0435,-0.4883,43.54,-6.59,32.44
767,1177972627,-0.9780,0.0708,-0.4321,42.44,-6.46,42.01
768,1177977627,-1.2798,0.0557,-0.4360,40.79,-5.73,50.98
769,1177982627,-1.5430,0.0479,-0.4995,39.51,-4.02,60.61
770,1177987629,-1.7925,0.0518,-0.5571,37.20,-1.46,71.22
771,1177992650,-2.0283,0.0615,-0.5903,32.68,2.44,83.72
772,1177997627,-2.2437,0.0591,-0.6089,26.04,7.13,97.93
773,1178002631,-2.4448,0.0615,-0.6270,19.09,12.87,115.67
774,1178007751,-2.6343,0.0889,-0.6016,12.07,19.51,136.89
775,1178012629,-2.7871,0.1147,-0.5229,4.45,26.77,161.34
776,1178017629,-2.9453,0.1460,-0.4688,-4.63,34.39,188.41
777,1178022631,-3.0498,0.1636,-0.3521,-13.90,41.77,217.87
778,1178027629,-3.1431,0.1294,-0.1338,-20.55,49.15,249.57
779,1178032629,-3.2871,0.0586,-0.1460,-24.70,55.06,283.17
780,1178037629,-3.6030,0.1260,-0.3765,-26.77,62.20,318.41
781,1178042629,-3.9067,0.1953,-1.1265,-31.95,72.32,355.24
782,1178047629,-4.2983,0.2056,-1.1782,-45.67,79.51,393.78
783,1178052628,-4.6587,0.0571,-0.7876,-43.11,89.70,433.72
784,1178057629,-5.0996,-0.1367,-1.2720,-27.56,99.39,473.17
785,1178062629,-5.4155,-0.4199,-1.6367,-11.52,108.11,511.22
786,1178067627,-5.7329,-0.7646,-1.4897,-1.34,121.10,547.62
787,1178072629,-6.1982,-0.9033,-1.6318,-0.61,135.98,583.41
788,1178077629,-6.6060,-0.8555,-2.0142,-11.46,147.38,619.76
789,1178082629,-6.8877,-1.0742,-1.6685,-23.96,158.23,658.54
790,1178087801,-6.9819,-1.5088,-1.5664,-35.98,169.15,699.02
791,1178092629,-7.0508,-1.9766,-1.6660,-47.32,177.99,739.45
792,1178097628,-7.0669,-2.5015,-1.5684,-57.62,185.49,779.94
793,1178102629,-6.9834,-3.0430,-1.4175,-66.10,193.17,820.79
794,1178107627,-6.9482,-3.5835,-1.4336,-73.84,199.63,861.22
795,1178112629,-7.0381,-4.1206,-1.3413,-82.93,204.82,899.27
796,1178117632,-7.1011,-4.6655,-1.1699,-92.38,209.33,934.21
797,1178122629,-7.1265,-5.2632,-1.0405,-100.79,213.35,965.24
798,1178127628,-7.1172,-5.8784,-0.9224,-106.34,217.80,992.68
799,1178132627,-7.0210,-6.4756,-0.6802,-109.63,219.57,1015.24
800,1178137629,-6.8413,-7.0273,-0.4414,-112.38,221.71,1032.01
801,1178142628,-6.6133,-7.5078,-0.1450,-114.39,225.06,1041.65
802,1178147627,-6.3096,-7.9048,0.2012,-112.80,229.21,1043.84
803,1178152627,-5.8643,-8.3853,0.4658,-109.45,232.80,1038.29
804,1178157629,-5.2441,-8.9072,0.7573,-101.34,237.32,1027.20
805,1178162629,-4.4858,-9.3481,1.0044,-86.16,240.91,1012.20
806,1178167628,-3.8740,-9.7812,1.2212,-67.50,245.43,992.87
807,1178172629,-3.4160,-10.1904,1.4185,-44.21,247.99,969.45
808,1178177627,-3.0327,-10.5469,1.5542,-18.05,250.18,941.65
809,1178182631,-2.7021,-10.8706,1.6914,9.21,251.28,909.39
810,1178187628,-2.3784,-11.0757,1.8345,33.66,249.82,871.71
811,1178192629,-2.0200,-11.1909,1.9741,51.16,246.04,828.78
812,1178197630,-1.7031,-11.2334,2.1313,62.62,239.76,781.28
813,1178202629,-1.4150,-11.2070,2.2441,65.67,230.79,730.00
814,1178207628,-1.1060,-11.1069,2.3364,59.21,219.21,675.85
815,1178212629,-0.7861,-10.9111,2.4307,44.57,204.94,620.18
816,1178217627,-0.4014,-10.6255,2.5220,24.09,189.02,564.45
817,1178222631,0.0005,-10.2695,2.5869,-0.73,172.20,509.02
818,1178227628,0.3418,-9.9062,2.6343,-27.44,155.24,454.70
819,1178232629,0.6846,-9.5039,2.6182,-51.83,138.84,402.56
820,1178237627,0.9639,-9.0708,2.5591,-70.30,123.41,353.54
821,1178243076,1.1812,-8.5732,2.4756,-81.83,109.76,307.50
822,1178247629,1.3735,-8.0698,2.3540,-86.28,97.74,264.76
823,1178252629,1.5479,-7.5576,2.1826,-84.02,88.48,225.61
824,1178257629,1.6689,-7.0322,2.0068,-76.59,80.06,189.94
825,1178262629,1.8013,-6.4863,1.8267,-66.40,73.48,157.93
826,1178267629,1.9302,-5.9409,1.6494,-55.61,68.78,129.39
827,1178272629,2.0327,-5.4102,1.4800,-45.30,65.43,104.33
828,1178277629,2.1318,-4.8848,1.3330,-36.34,63.66,82.80
829,1178282629,2.2280,-4.3623,1.1929,-29.02,62.99,64.76
830,1178287630,2.3149,-3.8906,1.0640,-23.35,63.29,49.82
831,1178292629,2.3188,-3.4502,0.9531,-19.27,63.84,37.99
832,1178297629,2.2852,-3.0288,0.8364,-17.56,64.45,28.90
833,1178302630,2.2529,-2.6792,0.7461,-18.41,64.70,22.26
834,1178307629,2.1826,-2.3330,0.5991,-22.07,64.33,17.68
835,1178312629,2.0552,-2.0923,0.5137,-29.02,62.62,14.70
836,1178317629,1.9111,-1.8452,0.4082,-41.04,59.88,13.05
837,1178322630,1.7949,-1.6377,0.3320,-57.93,56.65,12.38
838,1178327742,1.6343,-1.4805,0.2686,-76.89,52.62,12.38
839,1178332627,1.4897,-1.3203,0.2168,-94.76,48.54,13.23
840,1178337627,1.4229,-1.1548,0.1826,-108.78,44.88,14.76
841,1178342629,1.4111,-0.9956,0.1587,-116.95,42.07,16.83
842,1178348018,1.3945,-0.8765,0.1245,-118.96,40.18,20.06
843,1178352629,1.3794,-0.7573,0.0806,-115.85,39.15,23.90
844,1178357628,1.3623,-0.6597,0.0723,-109.70,38.90,28.05
845,1178362629,1.3496,-0.5820,0.0840,-102.38,39.70,32.38
846,1178367627,1.3413,-0.5361,0.0913,-93.90,41.34,36.52
847,1178372629,1.2910,-0.4883,0.0859,-84.57,43.48,40.67
848,1178377648,1.2100,-0.4795,0.0918,-73.66,45.67,44.15
849,1178382629,1.1519,-0.4814,0.0698,-60.37,47.93,47.13
850,1178387629,1.0713,-0.5024,0.0386,-44.82,49.70,49.45
851,1178392629,0.9619,-0.5273,0.0112,-28.72,51.04,50.55
852,1178397628,0.8423,-0.5415,-0.0186,-14.39,51.77,50.73
853,1178402631,0.7407,-0.5322,-0.0479,-3.96,51.89,49.88
854,1178407627,0.6660,-0.5166,-0.0674,0.61,51.89,48.11
855,1178412627,0.6270,-0.4990,-0.0752,-0.55,52.01,45.79
856,1178417627,0.6289,-0.4844,-0.0986,-5.79,52.13,43.72
857,1178422627,0.6562,-0.5137,-0.1187,-13.11,52.38,42.13
858,1178427630,0.7041,-0.5649,-0.1274,-21.10,52.50,41.52
859,1178432629,0.6924,-0.5874,-0.1426,-29.57,52.20,41.16
860,1178437629,0.6255,-0.6216,-0.1318,-38.35,51.77,40.12
861,1178442629,0.5903,-0.6685,-0.1245,-46.28,51.10,38.72
862,1178447629,0.5659,-0.7065,-0.1108,-51.71,50.43,37.20
863,1178452629,0.5293,-0.7183,-0.0981,-52.74,49.70,35.43
864,1178457629,0.5342,-0.7183,-0.0952,-48.35,48.96,33.66
865,1178462629,0.5610,-0.6992,-0.1084,-37.99,48.35,32.13
866,1178467627,0.5806,-0.6636,-0.1104,-23.17,47.62,30.85
867,1178472629,0.5786,-0.6284,-0.0933,-6.52,47.26,29.94
868,1178477629,0.5693,-0.5820,-0.0903,10.37,47.26,29.39
869,1178482629,0.5557,-0.5635,-0.0957,25.61,47.32,29.15
870,1178487627,0.5361,-0.5562,-0.1030,37.38,47.44,29.27
871,1178492629,0.4922,-0.5596,-0.1084,43.96,47.26,29.51
872,1178497629,0.4458,-0.5576,-0.1118,44.09,47.01,29.39
873,1178502629,0.3921,-0.5732,-0.1035,37.62,46.34,28.72
874,1178507630,0.3433,-0.6016,-0.0981,25.98,45.61,27.62
875,1178512629,0.2974,-0.6270,-0.1045,11.89,44.39,26.28
876,1178517629,0.2559,-0.6616,-0.0928,-2.20,43.11,24.76
877,1178522629,0.2178,-0.6948,-0.1050,-14.39,41.16,23.23
878,1178527629,0.1875,-0.7134,-0.0977,-23.35,39.21,21.71
879,1178532630,0.1655,-0.7222,-0.0908,-28.54,37.20,20.49
880,1178537629,0.1636,-0.7222,-0.0776,-29.51,35.30,19.51
881,1178542629,0.1772,-0.7251,-0.0767,-26.65,33.66,18.54
882,1178547629,0.1953,-0.7192,-0.0757,-20.61,32.13,18.23
883,1178552629,0.2085,-0.7046,-0.0679,-12.68,30.91,18.11
884,1178557629,0.2119,-0.6938,-0.0596,-4.21,29.76,18.54
885,1178562628,0.2363,-0.6992,-0.0537,4.09,29.39,19.15
886,1178567627,0.2612,-0.7227,-0.0635,11.83,28.84,20.30
887,1178572629,0.2500,-0.7280,-0.0713,18.11,28.60,21.22
888,1178577629,0.1914,-0.7412,-0.0703,22.20,28.29,22.01
889,1178582628,0.1436,-0.7524,-0.0684,24.15,27.74,22.13
890,1178587748,0.1230,-0.7773,-0.0640,24.57,27.38,21.83
891,1178592629,0.1011,-0.7935,-0.0732,24.51,26.71,21.46
892,1178597628,0.0654,-0.8125,-0.0732,23.90,25.98,20.91
893,1178602629,0.0347,-0.8184,-0.0679,22.68,25.12,20.18
894,1178607627,0.0176,-0.8169,-0.0654,20.98,24.21,19.33
895,1178612629,0.0083,-0.8198,-0.0645,19.33,23.54,18.72
896,1178617628,0.0146,-0.8208,-0.0654,18.17,22.87,18.23
897,1178622629,0.0107,-0.8096,-0.0752,17.32,22.13,18.05
898,1178627627,-0.0083,-0.7881,-0.0723,17.01,21.46,18.11
899,1178632629,-0.0073,-0.7651,-0.0786,16.77,20.79,18.17
900,1178637627,0.0078,-0.7397,-0.0884,16.65,20.37,18.66
901,1178642664,0.0156,-0.7158,-0.0884,16.71,19.94,19.21
902,1178647629,0.0093,-0.6855,-0.0938,16.89,19.63,20.24
903,1178652629,0.0337,-0.6694,-0.0967,17.44,19.57,21.40
904,1178657627,0.0620,-0.6455,-0.1094,18.11,19.57,22.80
905,1178662631,0.0596,-0.6431,-0.1162,19.27,19.70,24.39
906,1178667628,0.0605,-0.6660,-0.1221,20.79,19.88,25.98
907,1178672627,0.0742,-0.6929,-0.1333,22.74,20.18,27.68
908,1178677629,0.0508,-0.7222,-0.1367,24.76,20.55,29.27
909,1178682628,0.0142,-0.7515,-0.1372,26.40,20.85,30.61
910,1178687629,0.0054,-0.7817,-0.1479,28.17,21.16,31.59
911,1178692629,0.0112,-0.8101,-0.1621,30.06,21.40,32.44
912,1178697629,0.0259,-0.8193,-0.1709,32.56,21.52,32.99
913,1178702630,0.0269,-0.8296,-0.1772,34.88,21.22,33.29
914,1178707627,0.0400,-0.8306,-0.1855,36.71,21.22,33.17
915,1178712627,0.0371,-0.8374,-0.1851,37.38,20.79,32.62
916,1178717627,0.0269,-0.8545,-0.1768,36.77,20.24,31.77
917,1178722629,0.0200,-0.8638,-0.1650,34.76,19.63,30.61
918,1178727642,0.0171,-0.8618,-0.1597,31.04,19.39,29.09
919,1178732628,0.0132,-0.8467,-0.1484,26.04,19.15,27.07
920,1178737629,0.0015,-0.8555,-0.1367,20.37,18.90,24.70
921,1178742629,-0.0400,-0.8896,-0.1216,14.94,19.02,22.38
922,1178747627,-0.0869,-0.9170,-0.1299,10.98,19.27,20.55
923,1178752629,-0.1138,-0.9370,-0.1553,9.39,19.27,19.15
924,1178757629,-0.1055,-0.9419,-0.1758,10.55,19.39,18.17
925,1178762629,-0.0688,-0.9409,-0.2051,13.72,19.39,17.80
926,1178767630,-0.0459,-0.9238,-0.2300,18.11,19.33,17.56
927,1178772628,-0.0342,-0.9014,-0.2549,22.62,19.21,17.44
928,1178777627,0.0063,-0.8765,-0.2886,26.59,19.21,17.32
929,1178782629,0.0381,-0.8594,-0.3105,27.87,19.45,17.26
930,1178787628,0.0659,-0.8325,-0.3320,27.44,19.76,17.26
931,1178792629,0.0806,-0.8174,-0.3477,24.88,20.18,17.26
932,1178798047,0.1118,-0.8086,-0.3540,20.67,20.79,17.26
933,1178802627,0.1479,-0.7886,-0.3682,15.06,21.52,17.38
934,1178807629,0.1787,-0.7871,-0.3643,8.78,22.20,17.50
935,1178812627,0.2046,-0.8237,-0.3496,2.38,22.99,17.93
936,1178817630,0.1919,-0.8491,-0.3457,-3.29,24.02,18.54
937,1178822629,0.1406,-0.8950,-0.3433,-7.62,25.06,19.39
938,1178827629,0.0933,-0.9292,-0.3398,-10.12,25.79,20.37
939,1178832629,0.0615,-0.9551,-0.3418,-10.30,26.34,21.46
940,1178837629,0.0400,-0.9707,-0.3506,-8.05,26.65,22.68
941,1178842629,0.0298,-0.9956,-0.3740,-3.41,26.83,24.02
942,1178847628,0.0234,-1.0044,-0.3989,2.68,26.52,25.43
943,1178852629,0.0195,-1.0088,-0.4111,9.27,26.04,26.71
944,1178857629,0.0244,-1.0034,-0.4272,14.82,25.61,28.05
945,1178862629,0.0454,-0.9995,-0.4463,18.48,25.12,29.21
946,1178867629,0.0659,-0.9883,-0.4634,19.82,24.76,30.37
947,1178872629,0.0815,-0.9771,-0.4746,18.54,24.51,31.40
948,1178877743,0.1016,-0.9702,-0.4863,15.12,24.33,32.13
949,1178882874,0.1191,-0.9702,-0.4985,10.55,24.27,32.74
950,1178887629,0.1362,-0.9775,-0.5044,5.85,24.51,33.41
951,1178892628,0.1499,-0.9863,-0.5010,2.01,24.63,34.21
952,1178897631,0.1704,-0.9980,-0.5010,0.18,24.88,35.24
953,1178902627,0.1787,-1.0264,-0.5098,0.61,25.30,36.52
954,1178907629,0.1875,-1.0518,-0.5132,3.60,25.55,38.23
955,1178912628,0.1758,-1.0757,-0.5034,8.05,25.79,40.00
956,1178917631,0.1602,-1.0864,-0.5010,13.11,25.98,41.28
957,1178922627,0.1509,-1.1079,-0.4985,17.93,26.04,42.26
958,1178927630,0.1426,-1.1211,-0.5020,22.38,25.85,43.05
959,1178932629,0.1226,-1.1323,-0.5015,25.98,25.67,43.35
960,1178937630,0.1074,-1.1348,-0.4951,28.35,25.24,43.23
961,1178942683,0.0874,-1.1333,-0.4995,29.82,24.82,42.56
962,1178947627,0.0625,-1.1187,-0.4990,30.37,24.33,41.46
963,1178952629,0.0488,-1.1123,-0.5098,30.98,23.72,40.00
964,1178957629,0.0503,-1.0952,-0.5127,31.95,23.23,38.35
965,1178962629,0.0557,-1.0811,-0.5142,33.35,22.56,36.46
966,1178967629,0.0640,-1.0601,-0.5171,35.00,22.07,34.45
967,1178972629,0.0674,-1.0386,-0.5156,36.59,21.59,32.38
968,1178977629,0.0767,-1.0166,-0.5034,37.50,21.16,30.37
969,1178982629,0.0830,-0.9937,-0.5039,37.99,21.10,28.48
970,1178987629,0.0850,-0.9805,-0.5068,38.23,21.04,26.71
971,1178992627,0.0957,-0.9604,-0.5122,38.72,20.91,25.18
972,1178997629,0.1152,-0.9546,-0.5146,39.33,20.73,23.84
973,1179002628,0.1196,-0.9375,-0.5269,40.12,20.61,22.80
974,1179007629,0.1196,-0.9268,-0.5254,40.55,20.00,21.71
975,1179012627,0.1143,-0.9131,-0.5308,40.30,19.27,20.49
976,1179017631,0.1147,-0.9023,-0.5269,39.51,18.48,19.33
977,1179022628,0.1147,-0.8936,-0.5332,38.11,17.62,18.11
978,1179027629,0.1118,-0.8799,-0.5225,36.28,16.46,16.89
979,1179032627,0.1187,-0.8667,-0.5156,34.09,15.49,15.49
980,1179037629,0.1240,-0.8501,-0.5068,32.07,14.27,14.09
981,1179042628,0.1216,-0.8369,-0.4946,30.18,13.17,12.62
982,1179047627,0.1274,-0.8345,-0.4941,28.66,12.07,11.28
983,1179052629,0.1289,-0.8208,-0.4907,27.62,10.85,9.94
984,1179057629,0.1196,-0.8062,-0.4790,26.22,9.76,8.60
985,1179062629,0.1152,-0.7930,-0.4673,24.33,8.48,7.01
986,1179067629,0.1104,-0.7900,-0.4541,21.95,7.13,5.24
987,1179072629,0.1157,-0.7822,-0.4521,19.51,6.04,3.41
988,1179077629,0.1152,-0.7729,-0.4448,17.68,4.88,1.71
989,1179082629,0.1079,-0.7627,-0.4365,16.16,3.78,0.12
990,1179087627,0.0977,-0.7495,-0.4370,15.18,2.80,-1.22
991,1179092629,0.0996,-0.7314,-0.4404,14.70,1.95,-2.50
992,1179097629,0.1074,-0.7178,-0.4316,14.70,1.16,-3.54
993,1179102629,0.1279,-0.7183,-0.4365,15.06,0.24,-4.45
994,1179107629,0.1304,-0.7090,-0.4395,15.06,-0.37,-4.70
995,1179112628,0.1201,-0.6934,-0.4419,14.57,-1.04,-4.94
996,1179117629,0.1001,-0.6826,-0.4375,12.93,-1.59,-5.30
997,1179122630,0.0923,-0.6758,-0.4326,10.18,-2.01,-5.67
998,1179127628,0.0806,-0.6685,-0.4253,6.71,-2.44,-6.04
999,1179132629,0.0801,-0.6646,-0.4331,3.17,-2.68,-6.40
1000,1179137628,0.0776,-0.6602,-0.4209,-0.37,-2.99,-6.71
1001,1179142629,0.0757,-0.6577,-0.4175,-3.35,-3.17,-7.01
1002,1179147629,0.0659,-0.6621,-0.4268,-5.55,-3.41,-7.13
1003,1179152629,0.0591,-0.6729,-0.4243,-6.59,-3.90,-7.50
1004,1179157628,0.0566,-0.6758,-0.4102,-6.65,-4.33,-7.62
1005,1179162629,0.0557,-0.6846,-0.4058,-5.98,-4.76,-7.50
1006,1179167628,0.0430,-0.6973,-0.3960,-5.12,-5.24,-7.20
1007,1179172629,0.0381,-0.7183,-0.3906,-3.90,-5.61,-7.01
1008,1179177629,0.0498,-0.7314,-0.3867,-2.50,-5.98,-6.71
1009,1179182629,0.0625,-0.7485,-0.3765,-0.73,-6.34,-6.22
1010,1179187628,0.0605,-0.7700,-0.3643,1.40,-6.71,-5.73
1011,1179192628,0.0566,-0.7852,-0.3599,3.66,-6.89,-5.12
1012,1179197630,0.0547,-0.8013,-0.3481,5.91,-7.07,-4.70
1013,1179202702,0.0498,-0.8169,-0.3384,8.41,-7.38,-4.33
1014,1179207629,0.0396,-0.8291,-0.3340,10.91,-7.62,-4.09
1015,1179212629,0.0264,-0.8428,-0.3330,13.48,-7.87,-4.02
1016,1179217627,0.0156,-0.8486,-0.3193,16.04,-7.99,-4.09
1017,1179222627,0.0083,-0.8525,-0.3203,18.60,-8.23,-4.27
1018,1179227627,0.0063,-0.8613,-0.3140,21.04,-8.60,-4.63
1019,1179232627,0.0059,-0.8687,-0.3071,23.48,-8.84,-4.88
1020,1179237627,0.0034,-0.8726,-0.3057,25.73,-9.15,-5.12
1021,1179242627,-0.0005,-0.8735,-0.3013,27.50,-9.45,-5.55
1022,1179247627,0.0054,-0.8896,-0.2969,28.78,-9.70,-5.73
1023,1179253204,0.0029,-0.8960,-0.2939,29.33,-10.55,-5.79
1024,1179257629,-0.0015,-0.8989,-0.2896,28.90,-11.10,-6.10
1025,1179262628,-0.0034,-0.9072,-0.2832,27.56,-11.71,-6.40
1026,1179267629,0.0039,-0.9141,-0.2817,25.61,-12.50,-6.77
1027,1179272628,0.0029,-0.9185,-0.2754,23.54,-13.54,-7.20
1028,1179277629,-0.0083,-0.9287,-0.2612,22.07,-14.70,-7.62
1029,1179282629,-0.0190,-0.9248,-0.2588,21.34,-15.55,-8.05
1030,1179287629,-0.0054,-0.9229,-0.2485,21.95,-16.71,-8.60
1031,1179292627,0.0054,-0.9185,-0.2446,24.15,-17.68,-9.15
1032,1179297628,0.0195,-0.9097,-0.2480,27.87,-18.66,-9.51
1033,1179302629,0.0312,-0.8960,-0.2417,32.74,-19.57,-10.00
1034,1179307974,0.0513,-0.8857,-0.2432,39.70,-20.67,-10.30
1035,1179312629,0.0630,-0.8730,-0.2354,44.51,-21.28,-10.55
1036,1179317629,0.0771,-0.8638,-0.2314,50.00,-22.01,-10.73
1037,1179322629,0.0918,-0.8555,-0.2305,54.70,-22.56,-10.85
1038,1179327628,0.1089,-0.8662,-0.2363,58.41,-23.11,-10.55
1039,1179332629,0.0981,-0.8638,-0.2368,60.37,-23.72,-10.30
1040,1179337629,0.0684,-0.8662,-0.2471,60.43,-24.76,-10.06
1041,1179342629,0.0386,-0.8677,-0.2544,58.17,-26.10,-10.00
1042,1179347631,0.0269,-0.8613,-0.2534,53.54,-27.56,-10.00
1043,1179352628,0.0098,-0.8579,-0.2515,47.32,-29.09,-10.24
1044,1179357629,-0.0088,-0.8511,-0.2524,39.88,-30.67,-10.61
1045,1179362629,-0.0044,-0.8447,-0.2515,32.26,-32.44,-11.04
1046,1179367629,0.0039,-0.8291,-0.2485,24.88,-34.02,-11.34
1047,1179372629,0.0122,-0.8223,-0.2441,18.54,-35.43,-11.71
1048,1179377629,0.0273,-0.8013,-0.2383,13.54,-36.52,-12.13
1049,1179382628,0.0479,-0.7861,-0.2314,10.61,-37.56,-12.44
1050,1179387627,0.0732,-0.7725,-0.2280,9.82,-38.35,-12.74
1051,1179392782,0.1011,-0.7705,-0.2217,10.85,-38.60,-12.87
1052,1179397629,0.1245,-0.7710,-0.2056,13.54,-38.96,-12.93
1053,1179402628,0.1470,-0.7725,-0.1982,17.32,-38.84,-13.11
1054,1179407732,0.1548,-0.7695,-0.1899,21.95,-38.66,-13.11
1055,1179412631,0.1504,-0.7891,-0.1841,27.68,-38.05,-13.54
1056,1179417629,0.1333,-0.8022,-0.1816,33.84,-37.87,-14.02
1057,1179422628,0.1123,-0.8159,-0.1738,40.49,-37.80,-14.70
1058,1179427629,0.0835,-0.8330,-0.1855,47.01,-37.74,-15.55
1059,1179432672,0.0513,-0.8506,-0.1738,53.35,-38.29,-16.59
1060,1179437629,0.0190,-0.8623,-0.1860,58.90,-38.90,-17.74
1061,1179442629,-0.0049,-0.8721,-0.1807,63.11,-39.88,-19.02
1062,1179447629,-0.0190,-0.8765,-0.1816,65.67,-40.98,-20.30
1063,1179452668,-0.0234,-0.8848,-0.1807,66.46,-42.26,-21.77
1064,1179457627,-0.0293,-0.8818,-0.1812,65.73,-43.48,-23.41
1065,1179462627,-0.0308,-0.8853,-0.1797,63.29,-44.82,-25.00
1066,1179467629,-0.0234,-0.8833,-0.1782,59.45,-45.85,-26.77
1067,1179472628,-0.0127,-0.8901,-0.1724,54.45,-46.89,-28.35
1068,1179477629,-0.0044,-0.8926,-0.1655,48.72,-47.80,-29.82
1069,1179482628,0.0107,-0.8936,-0.1616,42.68,-48.35,-31.16
1070,1179487628,0.0312,-0.8960,-0.1548,36.71,-48.84,-32.26
1071,1179492627,0.0576,-0.9019,-0.1494,31.28,-48.84,-32.99
1072,1179497807,0.0840,-0.9009,-0.1299,27.07,-48.84,-33.48
1073,1179502629,0.1201,-0.9126,-0.1250,24.70,-48.23,-33.78
1074,1179507629,0.1465,-0.9360,-0.1099,24.63,-47.68,-33.90
1075,1179512629,0.1685,-0.9614,-0.1064,26.95,-47.26,-33.72
1076,1179517629,0.1904,-0.9868,-0.0923,31.34,-46.52,-33.29
1077,1179522628,0.1997,-1.0151,-0.0698,37.50,-45.85,-32.99
1078,1179527629,0.2197,-1.0342,-0.0581,44.94,-45.18,-32.44
1079,1179532628,0.2246,-1.0640,-0.0488,53.23,-44.51,-32.07
1080,1179537629,0.2217,-1.0938,-0.0430,61.83,-44.02,-31.77
1081,1179542629,0.2173,-1.1250,-0.0327,69.76,-43.84,-31.65
1082,1179547629,0.1987,-1.1582,-0.0249,76.46,-43.90,-31.59
1083,1179552629,0.1738,-1.1914,-0.0151,81.46,-44.15,-31.77
1084,1179557629,0.1484,-1.2251,-0.0039,84.21,-44.63,-32.44
1085,1179562628,0.1074,-1.2661,0.0005,84.94,-45.12,-33.17
1086,1179567631,0.0601,-1.3037,-0.0020,83.90,-46.04,-33.90
1087,1179572628,0.0327,-1.3384,-0.0015,81.52,-47.07,-34.57
1088,1179577629,0.0244,-1.3633,-0.0127,78.29,-48.29,-35.06
1089,1179582628,0.0356,-1.3765,-0.0117,73.96,-49.45,-35.49
1090,1179587630,0.0488,-1.3833,-0.0181,68.90,-50.49,-35.67
1091,1179592627,0.0786,-1.3818,-0.0244,62.80,-51.52,-35.79
1092,1179597877,0.1172,-1.3740,-0.0210,56.40,-52.44,-35.85
1093,1179602629,0.1616,-1.3613,-0.0317,50.18,-53.11,-36.04
1094,1179607628,0.2017,-1.3569,-0.0322,44.70,-53.48,-36.04
1095,1179612629,0.2314,-1.3442,-0.0317,39.82,-53.78,-36.16
1096,1179617629,0.2524,-1.3354,-0.0405,36.34,-53.66,-36.22
1097,1179622629,0.2822,-1.3389,-0.0264,33.72,-53.35,-36.46
1098,1179627629,0.3022,-1.3267,-0.0225,32.44,-52.80,-36.83
1099,1179632629,0.3198,-1.3232,-0.0078,32.62,-52.07,-37.44
1100,1179637627,0.3267,-1.3213,-0.0034,34.57,-51.10,-38.17
1101,1179642627,0.3423,-1.3184,0.0063,38.11,-50.18,-39.09
1102,1179647627,0.3481,-1.3198,0.0220,42.87,-49.27,-40.12
1103,1179652631,0.3555,-1.3232,0.0332,48.66,-48.23,-41.40
1104,1179657629,0.3501,-1.3306,0.0454,54.33,-47.26,-42.93
