# skilleye imu stream v1
# device=xiao_esp32c6 imu=mpu6050 addr=0x68
# rate_hz=200 accel_range_g=16 gyro_range_dps=2000 dlpf_hz=94
# units: accel in g, gyro in deg/s, t_us in microseconds since boot (monotonic)
# no shared clock with the camera -- tap the racket once before each take
# so both recordings share a spike to align on
seq,t_us,ax,ay,az,gx,gy,gz
0,1003737629,0.3057,1.0308,-0.3843,-6.65,13.05,8.66
1,1003743032,0.2925,1.0254,-0.3809,-5.12,13.54,10.37
2,1003747743,0.2827,1.0171,-0.3770,-3.60,13.84,12.07
3,1003752629,0.2808,1.0107,-0.3862,-2.38,14.02,13.72
4,1003757628,0.2739,1.0044,-0.3838,-1.40,14.27,15.30
5,1003762629,0.2749,1.0000,-0.3857,-1.22,14.45,16.71
6,1003767628,0.2739,0.9888,-0.3877,-1.59,14.57,18.11
7,1003772629,0.2686,0.9814,-0.3853,-2.38,14.57,19.39
8,1003777628,0.2622,0.9834,-0.3813,-3.29,14.39,20.49
9,1003782629,0.2578,0.9761,-0.3823,-4.21,14.51,21.34
10,1003787629,0.2593,0.9629,-0.3770,-4.57,14.45,22.26
11,1003792627,0.2539,0.9600,-0.3677,-4.57,14.45,22.93
12,1003797629,0.2534,0.9551,-0.3701,-4.02,14.63,23.66
13,1003802629,0.2490,0.9492,-0.3608,-3.29,14.82,24.27
14,1003807629,0.2402,0.9409,-0.3584,-2.50,15.00,25.06
15,1003812629,0.2334,0.9326,-0.3618,-2.20,15.12,25.79
16,1003817627,0.2241,0.9214,-0.3550,-2.38,15.43,26.40
17,1003822629,0.2144,0.9102,-0.3506,-2.99,15.43,27.01
18,1003827628,0.2144,0.8979,-0.3423,-4.02,15.55,27.68
19,1003832631,0.2070,0.8877,-0.3379,-5.24,15.73,28.23
20,1003837627,0.2002,0.8735,-0.3306,-6.71,15.61,28.66
21,1003842629,0.1948,0.8618,-0.3286,-7.99,15.49,29.02
22,1003847629,0.1968,0.8486,-0.3228,-9.02,15.43,29.39
23,1003852627,0.2012,0.8335,-0.3169,-9.76,15.24,29.51
24,1003857627,0.1982,0.8198,-0.3071,-10.18,15.18,29.57
25,1003862627,0.1987,0.8096,-0.3052,-10.24,14.88,29.63
26,1003867627,0.2036,0.7969,-0.2993,-10.24,14.39,29.57
27,1003872629,0.2061,0.7871,-0.2979,-9.88,14.02,29.27
28,1003877627,0.2109,0.7744,-0.2930,-9.33,13.35,28.90
29,1003882629,0.2075,0.7612,-0.2852,-8.72,12.87,28.48
30,1003887627,0.2100,0.7510,-0.2783,-7.93,12.26,27.87
31,1003892627,0.2095,0.7417,-0.2764,-7.13,11.52,27.07
32,1003897632,0.2168,0.7334,-0.2734,-6.28,10.79,26.16
33,1003902627,0.2178,0.7251,-0.2759,-5.30,9.82,25.18
34,1003907628,0.2109,0.7168,-0.2700,-4.27,8.96,24.21
35,1003912627,0.2065,0.7090,-0.2676,-3.17,8.17,23.11
36,1003917627,0.1982,0.7007,-0.2671,-1.89,7.26,21.95
37,1003922629,0.2046,0.6865,-0.2642,-0.55,6.46,20.79
38,1003927627,0.2036,0.6782,-0.2554,1.10,5.49,19.57
39,1003932627,0.2021,0.6714,-0.2622,2.68,4.70,18.23
40,1003937627,0.2012,0.6626,-0.2534,4.39,3.84,16.83
41,1003942627,0.2041,0.6558,-0.2554,6.16,2.87,15.37
42,1003947631,0.2148,0.6523,-0.2495,7.68,1.95,13.84
43,1003952629,0.2314,0.6548,-0.2490,8.84,1.10,12.20
44,1003957627,0.2510,0.6592,-0.2495,9.51,0.30,10.43
45,1003962631,0.2476,0.6626,-0.2495,9.45,-0.37,8.66
46,1003967629,0.2163,0.6680,-0.2593,8.29,-1.16,7.13
47,1003972630,0.2007,0.6709,-0.2734,6.10,-1.95,5.49
48,1003977627,0.1953,0.6724,-0.2715,3.29,-2.99,4.02
49,1003982631,0.1924,0.6807,-0.2822,0.24,-3.72,2.62
50,1003987627,0.1904,0.6895,-0.2812,-2.68,-4.51,1.22
51,1003992629,0.1807,0.6963,-0.2822,-5.06,-5.24,0.00
52,1003997629,0.1919,0.7065,-0.2954,-6.89,-5.91,-1.34
53,1004002627,0.2012,0.7104,-0.3032,-7.62,-6.34,-2.68
54,1004007631,0.2061,0.7192,-0.3081,-7.62,-6.83,-3.90
55,1004012627,0.2114,0.7280,-0.3125,-6.65,-7.13,-5.06
56,1004017627,0.2148,0.7354,-0.3169,-4.94,-7.68,-6.10
57,1004022627,0.2173,0.7446,-0.3301,-2.87,-7.74,-7.07
58,1004027627,0.2041,0.7539,-0.3252,-0.61,-7.68,-7.99
59,1004032627,0.1973,0.7612,-0.3428,1.46,-7.87,-8.66
60,1004037628,0.1860,0.7651,-0.3452,3.23,-7.93,-9.33
61,1004042631,0.1895,0.7695,-0.3413,4.57,-7.93,-9.82
62,1004047627,0.1914,0.7749,-0.3486,5.67,-7.80,-10.30
63,1004052631,0.1948,0.7832,-0.3486,6.40,-7.93,-10.61
64,1004057628,0.1904,0.7905,-0.3462,6.59,-7.74,-10.98
65,1004062629,0.1948,0.7983,-0.3564,6.34,-7.68,-11.22
66,1004067629,0.1978,0.8037,-0.3604,5.73,-7.56,-11.52
67,1004072629,0.2012,0.8062,-0.3574,4.76,-7.44,-11.77
68,1004077628,0.2002,0.8096,-0.3628,3.54,-7.38,-12.01
69,1004082628,0.2026,0.8174,-0.3643,2.26,-7.13,-12.20
70,1004087631,0.2075,0.8218,-0.3613,0.91,-6.95,-12.38
71,1004092627,0.2100,0.8311,-0.3599,-0.43,-6.89,-12.80
72,1004097627,0.2109,0.8384,-0.3696,-1.52,-6.65,-12.93
73,1004102629,0.2129,0.8477,-0.3628,-2.44,-6.52,-13.29
74,1004107629,0.2178,0.8496,-0.3696,-3.05,-6.40,-13.48
75,1004112875,0.2217,0.8535,-0.3706,-3.23,-6.28,-13.72
76,1004117631,0.2231,0.8643,-0.3784,-3.11,-6.04,-13.90
77,1004122629,0.2339,0.8608,-0.3755,-2.38,-6.10,-14.02
78,1004127629,0.2402,0.8662,-0.3740,-1.40,-5.91,-14.09
79,1004132627,0.2427,0.8774,-0.3813,-0.06,-5.79,-13.96
80,1004137629,0.2383,0.8828,-0.3818,1.40,-5.85,-13.96
81,1004142627,0.2407,0.8828,-0.3887,2.93,-5.73,-13.78
82,1004147691,0.2412,0.8867,-0.3926,4.51,-5.79,-13.66
83,1004152627,0.2456,0.8926,-0.3911,6.04,-5.73,-13.48
84,1004157627,0.2534,0.8931,-0.3989,7.50,-5.55,-13.35
85,1004162629,0.2617,0.8975,-0.3965,8.84,-5.30,-12.99
86,1004167629,0.2622,0.9033,-0.3882,9.82,-5.00,-12.87
87,1004172628,0.2632,0.9092,-0.3975,10.37,-4.82,-12.74
88,1004177630,0.2651,0.9126,-0.3892,10.67,-4.39,-12.50
89,1004182627,0.2686,0.9185,-0.3906,10.30,-4.02,-12.32
90,1004187630,0.2725,0.9219,-0.3906,9.57,-3.48,-12.07
91,1004192627,0.2661,0.9243,-0.3857,8.41,-2.93,-11.89
92,1004197632,0.2642,0.9326,-0.3857,6.83,-2.50,-11.71
93,1004202629,0.2524,0.9355,-0.3877,4.94,-1.89,-11.46
94,1004207629,0.2456,0.9370,-0.3833,3.05,-1.34,-11.34
95,1004212628,0.2544,0.9370,-0.3774,1.28,-0.49,-11.10
96,1004217629,0.2627,0.9380,-0.3726,0.00,-0.18,-10.79
97,1004222627,0.2671,0.9370,-0.3784,-0.79,0.49,-10.55
98,1004227629,0.2637,0.9380,-0.3726,-1.16,0.98,-10.18
99,1004232628,0.2734,0.9351,-0.3682,-1.10,1.46,-9.94
100,1004237629,0.2729,0.9365,-0.3628,-0.37,1.95,-9.70
101,1004242629,0.2788,0.9399,-0.3672,0.43,2.44,-9.51
102,1004247654,0.2783,0.9360,-0.3608,1.10,2.68,-9.15
103,1004252630,0.2783,0.9380,-0.3594,1.71,3.11,-8.78
104,1004257629,0.2817,0.9414,-0.3608,2.13,3.23,-8.48
105,1004262629,0.2725,0.9414,-0.3481,2.44,3.48,-8.23
106,1004267628,0.2729,0.9468,-0.3506,2.56,3.66,-7.74
107,1004272629,0.2739,0.9482,-0.3452,2.56,3.90,-7.50
108,1004277629,0.2783,0.9478,-0.3447,2.50,4.21,-7.20
109,1004282629,0.2822,0.9546,-0.3389,2.62,4.33,-6.89
110,1004287628,0.2881,0.9521,-0.3340,3.05,4.57,-6.65
111,1004292629,0.2944,0.9536,-0.3281,3.78,4.82,-6.40
112,1004297627,0.2925,0.9604,-0.3291,4.82,5.06,-6.10
113,1004302631,0.2944,0.9668,-0.3271,5.98,5.49,-5.85
114,1004308084,0.2900,0.9697,-0.3198,7.13,5.85,-5.55
115,1004312629,0.2788,0.9746,-0.3218,8.11,6.28,-5.24
116,1004317629,0.2690,0.9766,-0.3135,8.60,6.65,-4.88
117,1004322630,0.2593,0.9795,-0.3159,8.66,7.26,-4.45
118,1004327628,0.2524,0.9834,-0.3076,8.29,7.56,-3.96
119,1004332629,0.2393,0.9878,-0.3091,7.44,7.93,-3.54
120,1004337696,0.2388,0.9907,-0.3105,6.52,8.48,-3.11
121,1004342630,0.2334,0.9961,-0.3066,5.37,8.90,-2.62
122,1004347629,0.2368,0.9946,-0.3115,4.15,9.21,-2.07
123,1004352629,0.2378,0.9932,-0.3081,3.17,9.57,-1.59
124,1004357628,0.2310,0.9946,-0.3013,2.20,9.94,-1.16
125,1004362629,0.2285,0.9980,-0.2964,1.28,10.30,-0.67
126,1004367629,0.2314,1.0015,-0.2925,0.37,10.49,-0.30
127,1004372629,0.2217,1.0034,-0.2871,-0.61,10.85,0.06
128,1004377628,0.2192,1.0093,-0.2915,-1.52,11.16,0.55
129,1004382629,0.2173,1.0039,-0.2856,-2.26,11.22,0.91
130,1004387629,0.2075,1.0029,-0.2827,-2.93,11.46,1.34
131,1004392629,0.2124,1.0024,-0.2832,-3.17,11.46,1.77
132,1004397627,0.2144,0.9971,-0.2832,-3.05,11.52,2.13
133,1004402628,0.2188,0.9941,-0.2686,-2.62,11.59,2.44
134,1004407634,0.2241,0.9873,-0.2700,-1.40,11.59,2.80
135,1004412629,0.2300,0.9824,-0.2671,-0.37,11.52,3.05
136,1004417629,0.2378,0.9810,-0.2529,1.28,11.59,3.23
137,1004422629,0.2446,0.9751,-0.2622,3.17,11.71,3.48
138,1004427628,0.2451,0.9692,-0.2510,5.06,11.59,3.66
139,1004432629,0.2471,0.9624,-0.2378,6.77,11.71,3.90
140,1004437629,0.2485,0.9644,-0.2300,8.05,11.95,4.15
141,1004442629,0.2441,0.9585,-0.2275,8.41,12.20,4.39
142,1004447628,0.2349,0.9556,-0.2324,7.80,12.26,4.63
143,1004452630,0.2324,0.9565,-0.2227,6.16,12.38,5.18
144,1004457629,0.2319,0.9556,-0.2227,3.23,12.68,5.49
145,1004462629,0.2305,0.9487,-0.2236,-0.61,12.99,5.98
146,1004467628,0.2334,0.9443,-0.2134,-5.30,13.17,6.65
147,1004472629,0.2329,0.9385,-0.2109,-10.73,13.29,7.26
148,1004477629,0.2393,0.9292,-0.2144,-16.34,13.35,7.93
149,1004482629,0.2368,0.9204,-0.2129,-21.40,13.41,8.54
150,1004487627,0.2363,0.9131,-0.2134,-25.67,13.11,9.27
151,1004492628,0.2388,0.9028,-0.2119,-28.35,12.99,10.00
152,1004497630,0.2388,0.8950,-0.2109,-29.39,12.62,10.73
153,1004502629,0.2383,0.8877,-0.2139,-28.84,12.26,11.46
154,1004507629,0.2441,0.8770,-0.2090,-26.83,12.07,12.13
155,1004512629,0.2515,0.8716,-0.2031,-23.48,11.65,12.87
156,1004517631,0.2563,0.8633,-0.2056,-19.57,11.40,13.41
157,1004522628,0.2612,0.8540,-0.2021,-15.06,10.85,13.84
158,1004527961,0.2720,0.8506,-0.2070,-10.61,10.24,14.33
159,1004532629,0.2773,0.8501,-0.2012,-6.59,9.76,14.63
160,1004537629,0.2808,0.8525,-0.2061,-2.99,9.21,14.82
161,1004542629,0.2729,0.8511,-0.2021,-0.12,8.41,15.06
162,1004547628,0.2729,0.8511,-0.2061,1.83,7.56,15.18
163,1004552630,0.2817,0.8516,-0.2085,3.05,6.83,15.37
164,1004557629,0.2798,0.8540,-0.2090,3.66,6.16,15.37
165,1004562630,0.2837,0.8599,-0.2080,3.84,5.55,15.49
166,1004567628,0.2910,0.8613,-0.2090,3.78,4.82,15.61
167,1004572629,0.2861,0.8599,-0.2148,3.35,4.27,15.67
168,1004577629,0.2827,0.8608,-0.2207,2.80,3.84,15.61
169,1004582629,0.2832,0.8662,-0.2251,1.95,3.35,15.55
170,1004587628,0.2925,0.8667,-0.2290,1.22,3.11,15.49
171,1004592629,0.2974,0.8682,-0.2314,0.24,2.74,15.37
172,1004597629,0.2886,0.8735,-0.2319,-0.43,2.44,15.30
173,1004602629,0.2808,0.8853,-0.2358,-1.04,2.32,15.18
174,1004607628,0.2832,0.8848,-0.2495,-1.65,2.38,15.12
175,1004612630,0.2876,0.8892,-0.2495,-2.26,2.32,14.94
176,1004617629,0.2935,0.8931,-0.2485,-2.74,2.50,14.70
177,1004622629,0.2939,0.8979,-0.2568,-3.11,2.56,14.39
178,1004627629,0.3062,0.9058,-0.2622,-3.29,2.50,14.21
179,1004632697,0.3062,0.9097,-0.2686,-3.17,2.56,13.90
180,1004637629,0.3105,0.9136,-0.2744,-2.93,2.62,13.41
181,1004642629,0.3125,0.9185,-0.2754,-2.38,2.56,12.99
182,1004647695,0.3237,0.9272,-0.2803,-1.65,2.50,12.56
183,1004652629,0.3345,0.9307,-0.2847,-0.85,2.44,12.07
184,1004657721,0.3403,0.9341,-0.2905,0.30,2.44,11.65
185,1004662628,0.3472,0.9463,-0.3047,1.04,2.26,11.34
186,1004667629,0.3535,0.9541,-0.3110,1.40,2.32,10.85
187,1004672627,0.3408,0.9561,-0.3193,1.40,2.44,10.67
188,1004677629,0.3418,0.9604,-0.3286,0.85,2.68,10.61
189,1004682628,0.3311,0.9683,-0.3330,0.18,2.87,10.61
190,1004687630,0.3286,0.9683,-0.3389,-0.43,3.17,10.67
191,1004692627,0.3228,0.9673,-0.3481,-0.91,3.60,10.91
192,1004697629,0.3174,0.9707,-0.3442,-0.91,3.90,11.22
193,1004702629,0.3208,0.9663,-0.3511,-0.49,4.51,11.46
194,1004707629,0.3135,0.9697,-0.3477,0.37,5.30,11.83
195,1004712651,0.3110,0.9629,-0.3511,1.22,5.98,12.20
196,1004717659,0.3076,0.9619,-0.3418,2.13,6.65,12.74
197,1004722628,0.2998,0.9590,-0.3481,2.99,7.32,13.17
198,1004727627,0.2993,0.9624,-0.3369,3.66,7.99,13.54
199,1004732631,0.2930,0.9639,-0.3354,3.96,8.84,13.84
200,1004737629,0.2896,0.9604,-0.3320,3.72,9.70,14.39
201,1004742628,0.2754,0.9619,-0.3247,3.11,10.67,14.88
202,1004747629,0.2686,0.9658,-0.3232,2.07,11.52,15.37
203,1004752627,0.2559,0.9634,-0.3096,0.30,12.56,15.91
204,1004757629,0.2476,0.9634,-0.3037,-1.89,13.41,16.59
205,1004762629,0.2417,0.9634,-0.2983,-4.45,14.27,17.32
206,1004767629,0.2339,0.9556,-0.2910,-7.01,15.06,18.05
207,1004772627,0.2290,0.9478,-0.2896,-9.76,15.79,18.78
208,1004777629,0.2241,0.9487,-0.2837,-12.13,16.46,19.39
209,1004782628,0.2207,0.9355,-0.2720,-14.15,17.20,20.18
210,1004787629,0.2163,0.9336,-0.2637,-15.67,17.68,20.85
211,1004792628,0.2188,0.9297,-0.2539,-16.71,18.11,21.65
212,1004797627,0.2183,0.9233,-0.2427,-17.07,18.35,22.26
213,1004802629,0.2124,0.9194,-0.2388,-17.01,18.54,22.87
214,1004807628,0.2134,0.9097,-0.2314,-16.46,18.72,23.60
215,1004812629,0.2109,0.9028,-0.2227,-15.79,18.78,24.09
216,1004817931,0.2109,0.8931,-0.2114,-14.63,18.78,24.39
217,1004822629,0.2124,0.8843,-0.1992,-13.29,18.41,24.70
218,1004827629,0.2168,0.8711,-0.1963,-11.46,18.29,25.00
219,1004832628,0.2266,0.8608,-0.1895,-9.27,17.99,25.12
220,1004837629,0.2310,0.8550,-0.1826,-6.77,17.50,25.24
221,1004842627,0.2363,0.8452,-0.1724,-3.48,16.83,25.18
222,1004847629,0.2417,0.8403,-0.1655,-1.34,16.40,25.24
223,1004852628,0.2534,0.8325,-0.1577,1.59,15.85,25.12
224,1004857631,0.2598,0.8267,-0.1523,4.39,15.18,24.76
225,1004862627,0.2588,0.8174,-0.1406,6.89,14.63,24.51
226,1004867629,0.2539,0.8232,-0.1416,8.66,14.15,24.09
227,1004872628,0.2456,0.8218,-0.1323,9.63,13.48,23.60
228,1004877629,0.2441,0.8164,-0.1294,9.63,12.74,23.05
229,1004882627,0.2456,0.8149,-0.1206,8.96,12.13,22.44
230,1004887629,0.2412,0.8145,-0.1177,7.56,11.46,21.65
231,1004892628,0.2432,0.8213,-0.1187,5.61,10.73,20.85
232,1004897888,0.2495,0.8179,-0.1143,3.48,9.94,19.88
233,1004902629,0.2598,0.8120,-0.1025,0.98,9.15,18.78
234,1004907629,0.2666,0.8110,-0.1030,-1.77,8.23,17.62
235,1004912629,0.2861,0.8110,-0.1035,-4.45,7.26,16.40
236,1004917629,0.2993,0.8066,-0.1045,-7.07,6.22,15.06
237,1004922629,0.3149,0.8052,-0.1045,-9.21,5.24,13.66
238,1004927629,0.3213,0.8013,-0.1123,-10.98,3.96,12.26
239,1004932629,0.3340,0.8003,-0.1094,-12.32,2.87,10.79
240,1004937799,0.3325,0.7959,-0.1064,-12.99,1.71,9.45
241,1004942629,0.3374,0.7939,-0.1108,-13.11,0.61,8.05
242,1004947629,0.3354,0.7954,-0.1128,-12.56,-0.61,6.77
243,1004952629,0.3330,0.7959,-0.1104,-11.65,-1.65,5.61
244,1004957653,0.3213,0.7969,-0.1172,-10.18,-2.80,4.51
245,1004962629,0.3154,0.7900,-0.1172,-8.29,-3.90,3.35
246,1004967629,0.3159,0.7920,-0.1270,-6.04,-5.00,2.38
247,1004972629,0.3164,0.7920,-0.1304,-3.90,-6.04,1.65
248,1004977628,0.3091,0.7935,-0.1318,-1.71,-7.20,0.73
249,1004982629,0.3086,0.7939,-0.1387,0.49,-8.17,-0.12
250,1004987629,0.3154,0.7983,-0.1479,2.38,-9.33,-0.79
251,1004992629,0.3149,0.8013,-0.1436,4.02,-10.24,-1.65
252,1004997628,0.3140,0.8037,-0.1572,5.30,-11.22,-2.20
253,1005002629,0.3125,0.8135,-0.1621,6.22,-12.26,-2.99
254,1005007629,0.3159,0.8198,-0.1646,6.77,-13.29,-3.66
255,1005012629,0.3169,0.8228,-0.1719,6.89,-13.96,-4.39
256,1005017628,0.3232,0.8354,-0.1748,6.89,-14.76,-5.18
257,1005022629,0.3208,0.8428,-0.1724,6.65,-15.49,-5.85
258,1005027629,0.3213,0.8516,-0.1934,6.10,-16.10,-6.59
259,1005032629,0.3159,0.8574,-0.1929,5.49,-16.71,-7.26
260,1005037627,0.3101,0.8638,-0.1943,4.76,-17.13,-7.80
261,1005042629,0.3042,0.8687,-0.1963,4.15,-17.56,-8.23
262,1005047629,0.2959,0.8740,-0.2051,3.66,-17.93,-8.66
263,1005052629,0.2876,0.8789,-0.2056,3.35,-18.17,-8.96
264,1005057628,0.2832,0.8774,-0.1968,3.48,-18.41,-9.21
265,1005062629,0.2783,0.8789,-0.2114,3.72,-18.66,-9.33
266,1005067630,0.2773,0.8765,-0.2095,4.02,-18.84,-9.45
267,1005072629,0.2749,0.8730,-0.2070,4.70,-19.02,-9.51
268,1005077628,0.2812,0.8750,-0.2031,5.30,-19.21,-9.57
269,1005082629,0.2910,0.8765,-0.2090,5.98,-19.33,-9.70
270,1005087629,0.2866,0.8735,-0.2100,6.16,-19.76,-9.76
271,1005092629,0.2788,0.8765,-0.2197,5.98,-19.94,-9.82
272,1005097628,0.2754,0.8799,-0.2280,5.37,-20.18,-10.00
273,1005102629,0.2812,0.8823,-0.2236,4.33,-20.55,-10.00
274,1005107629,0.2798,0.8838,-0.2266,3.23,-20.91,-9.88
275,1005112629,0.2759,0.8931,-0.2295,2.07,-21.04,-9.82
276,1005117628,0.2798,0.8965,-0.2344,0.85,-21.40,-9.76
277,1005122631,0.2798,0.8970,-0.2388,-0.24,-21.52,-9.76
278,1005127629,0.2822,0.9019,-0.2471,-1.22,-21.65,-9.57
279,1005132629,0.2739,0.9043,-0.2461,-2.07,-21.71,-9.51
280,1005137628,0.2705,0.9072,-0.2407,-2.56,-21.77,-9.45
281,1005142629,0.2744,0.9058,-0.2368,-2.56,-21.59,-9.33
282,1005147630,0.2744,0.9067,-0.2373,-2.44,-21.16,-9.15
283,1005152629,0.2671,0.9019,-0.2412,-1.95,-20.73,-8.96
284,1005157627,0.2568,0.9014,-0.2363,-1.40,-20.24,-8.60
285,1005162629,0.2534,0.8979,-0.2427,-0.98,-19.82,-8.23
286,1005167629,0.2554,0.8955,-0.2349,-0.67,-19.15,-7.87
287,1005172629,0.2563,0.8926,-0.2358,-0.73,-18.54,-7.62
288,1005177628,0.2583,0.8906,-0.2412,-0.91,-18.11,-7.38
289,1005182629,0.2642,0.8867,-0.2437,-2.01,-17.56,-7.32
290,1005187629,0.2720,0.8818,-0.2461,-3.41,-17.01,-7.44
291,1005192628,0.2861,0.8823,-0.2559,-5.18,-16.71,-7.56
292,1005197631,0.2974,0.8765,-0.2593,-7.07,-16.28,-7.87
293,1005202630,0.3086,0.8770,-0.2661,-8.78,-15.91,-8.17
294,1005207629,0.3169,0.8740,-0.2720,-9.82,-15.79,-8.48
295,1005212630,0.3213,0.8794,-0.2715,-10.30,-15.49,-8.78
296,1005217858,0.3364,0.8838,-0.2754,-9.82,-15.30,-9.27
297,1005222630,0.3359,0.8916,-0.2690,-9.09,-15.12,-9.76
298,1005227627,0.3296,0.8975,-0.2812,-8.41,-14.70,-10.06
299,1005232631,0.3232,0.9019,-0.2822,-8.11,-14.39,-10.30
300,1005237628,0.3169,0.9092,-0.2964,-8.41,-14.09,-10.37
301,1005242629,0.2983,0.9121,-0.2979,-9.39,-13.72,-10.43
302,1005247629,0.2812,0.9185,-0.2935,-10.79,-13.35,-10.24
303,1005252628,0.2715,0.9165,-0.2983,-12.44,-13.05,-10.06
304,1005257629,0.2666,0.9194,-0.3003,-13.78,-12.62,-9.70
305,1005262627,0.2563,0.9170,-0.2935,-14.82,-12.20,-9.33
306,1005267629,0.2500,0.9150,-0.2847,-15.30,-11.77,-9.02
307,1005272629,0.2529,0.9048,-0.2808,-15.06,-11.34,-8.60
308,1005277629,0.2637,0.9009,-0.2725,-14.51,-10.98,-8.17
309,1005282627,0.2773,0.8921,-0.2632,-13.35,-10.67,-7.93
310,1005287631,0.2822,0.8779,-0.2583,-11.89,-10.30,-7.56
311,1005292628,0.2920,0.8682,-0.2505,-10.06,-10.12,-7.26
312,1005297629,0.3022,0.8613,-0.2471,-8.11,-10.00,-6.95
313,1005302628,0.3184,0.8594,-0.2363,-6.04,-9.94,-6.59
314,1005307629,0.3252,0.8501,-0.2363,-3.96,-10.00,-6.28
315,1005312628,0.3286,0.8501,-0.2339,-2.07,-10.18,-5.79
316,1005317629,0.3374,0.8472,-0.2227,-0.30,-10.49,-5.43
317,1005322627,0.3467,0.8423,-0.2192,1.65,-10.73,-4.88
318,1005327673,0.3535,0.8398,-0.2080,3.35,-11.28,-4.45
319,1005332629,0.3662,0.8374,-0.2021,4.88,-11.77,-4.02
320,1005337629,0.3735,0.8359,-0.1899,6.16,-12.13,-3.54
321,1005342629,0.3691,0.8374,-0.1851,7.26,-12.56,-2.99
322,1005347628,0.3530,0.8315,-0.1753,7.80,-12.87,-2.50
323,1005352629,0.3472,0.8330,-0.1694,7.87,-13.41,-1.95
324,1005357629,0.3496,0.8330,-0.1665,7.68,-13.84,-1.40
325,1005362629,0.3535,0.8271,-0.1602,7.13,-14.09,-0.98
326,1005367628,0.3525,0.8247,-0.1567,6.65,-14.45,-0.37
327,1005372630,0.3477,0.8198,-0.1621,6.04,-14.57,0.06
328,1005377629,0.3486,0.8145,-0.1533,5.67,-14.88,0.49
329,1005382629,0.3481,0.8027,-0.1450,5.43,-15.12,0.91
330,1005387628,0.3589,0.7998,-0.1450,5.55,-15.30,1.28
331,1005392629,0.3784,0.8027,-0.1445,5.85,-15.30,1.52
332,1005397629,0.3877,0.8066,-0.1387,6.40,-15.30,1.83
333,1005402629,0.3896,0.8101,-0.1431,6.52,-15.30,2.01
334,1005408025,0.3760,0.8135,-0.1548,6.40,-15.37,2.26
335,1005412629,0.3721,0.8218,-0.1562,5.79,-15.18,2.44
336,1005417629,0.3691,0.8291,-0.1597,4.82,-15.18,2.80
337,1005422629,0.3701,0.8364,-0.1689,3.48,-14.94,3.05
338,1005427628,0.3647,0.8408,-0.1650,2.13,-14.88,3.54
339,1005432629,0.3677,0.8496,-0.1758,0.91,-14.70,3.96
340,1005437629,0.3691,0.8550,-0.1772,-0.18,-14.51,4.27
341,1005442631,0.3706,0.8638,-0.1743,-0.67,-14.45,4.82
342,1005448027,0.3804,0.8730,-0.1733,-0.37,-14.27,5.24
343,1005452629,0.3828,0.8794,-0.1772,0.18,-14.09,5.61
344,1005458104,0.3789,0.8921,-0.1836,1.52,-14.02,6.10
345,1005462629,0.3823,0.9048,-0.1914,2.50,-13.96,6.40
346,1005467628,0.3916,0.9219,-0.1982,3.54,-13.84,6.89
347,1005472629,0.3887,0.9331,-0.2007,4.27,-13.66,7.50
348,1005477629,0.3818,0.9512,-0.2114,4.51,-13.41,8.17
349,1005482629,0.3848,0.9697,-0.2202,4.33,-13.23,9.09
350,1005487629,0.3867,0.9873,-0.2339,3.78,-12.93,10.06
351,1005492627,0.3794,1.0137,-0.2500,3.17,-12.80,11.22
352,1005497629,0.3765,1.0361,-0.2563,2.74,-12.44,12.50
353,1005502628,0.3784,1.0557,-0.2651,2.62,-12.07,13.90
354,1005507630,0.3809,1.0815,-0.2764,2.62,-11.77,15.37
355,1005512627,0.3682,1.1011,-0.2856,3.29,-11.40,16.95
356,1005517629,0.3628,1.1230,-0.2896,4.39,-10.98,18.72
357,1005522628,0.3589,1.1431,-0.3013,5.85,-10.49,20.43
358,1005527629,0.3628,1.1538,-0.3164,7.93,-10.00,22.32
359,1005532629,0.3589,1.1685,-0.3184,10.24,-9.57,24.09
360,1005537629,0.3574,1.1831,-0.3281,12.80,-8.90,25.98
361,1005542628,0.3540,1.1919,-0.3364,15.24,-8.35,27.93
362,1005547629,0.3413,1.1973,-0.3403,16.95,-7.74,29.94
363,1005552627,0.3325,1.2031,-0.3354,18.11,-6.83,31.89
364,1005557629,0.3242,1.1982,-0.3467,18.35,-6.16,33.96
365,1005562628,0.3125,1.1978,-0.3438,17.93,-5.24,36.10
366,1005567629,0.3018,1.1914,-0.3447,17.20,-4.27,38.29
367,1005572627,0.2920,1.1895,-0.3408,16.04,-3.17,40.55
368,1005577629,0.2778,1.1831,-0.3394,14.88,-2.01,42.80
369,1005582628,0.2695,1.1709,-0.3335,13.84,-0.73,45.12
370,1005587629,0.2637,1.1548,-0.3311,12.93,0.43,47.26
371,1005592627,0.2559,1.1396,-0.3242,12.26,1.59,49.51
372,1005597629,0.2544,1.1260,-0.3149,11.83,2.80,51.52
373,1005602628,0.2432,1.1040,-0.3101,11.77,4.15,53.23
374,1005607629,0.2437,1.0811,-0.2998,12.01,5.30,54.82
375,1005612628,0.2437,1.0610,-0.2871,12.68,6.28,56.22
376,1005617629,0.2456,1.0352,-0.2744,14.02,7.32,57.44
377,1005622628,0.2495,1.0122,-0.2759,15.79,8.29,58.48
378,1005627627,0.2603,0.9873,-0.2554,17.50,9.21,59.15
379,1005632629,0.2642,0.9600,-0.2461,19.21,9.94,59.33
380,1005637629,0.2671,0.9375,-0.2383,20.61,10.67,59.27
381,1005642629,0.2686,0.9150,-0.2285,21.22,11.16,59.15
382,1005647629,0.2710,0.8916,-0.2109,21.16,11.40,58.60
383,1005652629,0.2729,0.8633,-0.2065,20.37,11.83,57.74
384,1005657629,0.2749,0.8423,-0.1997,18.84,12.07,56.77
385,1005662628,0.2700,0.8179,-0.1875,16.83,12.13,55.55
386,1005667629,0.2720,0.7974,-0.1758,14.21,12.01,54.15
387,1005672627,0.2847,0.7793,-0.1670,11.22,12.07,52.50
388,1005677627,0.2847,0.7578,-0.1567,7.99,11.77,50.79
389,1005682629,0.2856,0.7393,-0.1582,4.45,11.46,48.96
390,1005687629,0.2876,0.7275,-0.1475,0.79,11.04,47.01
391,1005692628,0.2949,0.7124,-0.1460,-2.74,10.55,45.00
392,1005697629,0.3032,0.7051,-0.1431,-6.04,10.06,42.87
393,1005702627,0.3184,0.6968,-0.1377,-8.96,9.39,40.79
394,1005707629,0.3252,0.6885,-0.1294,-11.59,8.60,38.54
395,1005712628,0.3311,0.6904,-0.1279,-13.60,8.05,36.22
396,1005717627,0.3330,0.6904,-0.1226,-15.06,7.32,34.02
397,1005722631,0.3301,0.6860,-0.1187,-15.85,6.65,31.77
398,1005727629,0.3389,0.6880,-0.1274,-16.16,6.04,29.51
399,1005732629,0.3423,0.6899,-0.1318,-15.91,5.43,27.44
400,1005737629,0.3462,0.6875,-0.1226,-15.24,4.70,25.49
401,1005742628,0.3496,0.6870,-0.1226,-14.15,3.96,23.41
402,1005747629,0.3491,0.6885,-0.1230,-12.56,3.29,21.52
403,1005752628,0.3535,0.6787,-0.1284,-10.85,2.62,19.70
404,1005757629,0.3594,0.6826,-0.1216,-9.09,2.01,17.74
405,1005762627,0.3726,0.6826,-0.1279,-7.56,1.28,15.91
406,1005768087,0.3809,0.6821,-0.1313,-5.98,0.30,13.60
407,1005772630,0.3823,0.6836,-0.1372,-5.18,-0.30,12.13
408,1005777629,0.3857,0.6851,-0.1499,-4.70,-0.98,10.43
409,1005782629,0.3857,0.6914,-0.1514,-4.39,-1.59,8.66
410,1005787627,0.3911,0.6958,-0.1484,-4.39,-2.32,7.07
411,1005792628,0.3862,0.7090,-0.1567,-4.57,-2.93,5.61
412,1005797629,0.3833,0.7217,-0.1699,-4.63,-3.48,4.33
413,1005802628,0.3804,0.7275,-0.1694,-4.76,-3.96,3.23
414,1005807629,0.3735,0.7358,-0.1729,-4.94,-4.33,2.32
415,1005812627,0.3633,0.7422,-0.1841,-5.00,-4.70,1.65
416,1005817630,0.3545,0.7495,-0.1812,-4.88,-5.00,1.10
417,1005822628,0.3496,0.7505,-0.1904,-4.27,-5.30,0.67
418,1005827629,0.3535,0.7549,-0.1919,-3.17,-5.61,0.43
419,1005832627,0.3564,0.7661,-0.1992,-1.34,-5.85,0.30
420,1005837629,0.3584,0.7661,-0.1982,1.04,-5.98,0.24
421,1005842629,0.3677,0.7739,-0.1948,3.90,-6.16,0.18
422,1005847629,0.3813,0.7856,-0.2051,6.83,-6.28,0.43
423,1005852627,0.3862,0.7983,-0.2153,9.88,-6.16,0.61
424,1005857631,0.3833,0.8086,-0.2173,12.62,-6.40,0.85
425,1005862628,0.3867,0.8174,-0.2261,14.94,-6.46,1.22
426,1005867627,0.3843,0.8350,-0.2349,17.26,-6.52,1.59
427,1005872629,0.3838,0.8423,-0.2422,18.41,-6.59,2.01
428,1005877627,0.3867,0.8550,-0.2495,19.45,-6.46,2.32
429,1005882629,0.3940,0.8618,-0.2603,20.12,-6.46,2.68
430,1005887881,0.4004,0.8687,-0.2627,20.43,-6.28,3.17
431,1005892629,0.4038,0.8789,-0.2671,20.43,-6.10,3.41
432,1005897627,0.4087,0.8799,-0.2720,19.94,-6.04,3.72
433,1005902629,0.4136,0.8872,-0.2739,19.21,-5.98,3.90
434,1005907629,0.4155,0.8867,-0.2778,18.05,-5.79,4.09
435,1005912629,0.4160,0.8936,-0.2871,16.83,-5.55,4.27
436,1005917628,0.4204,0.8862,-0.2905,15.55,-5.30,4.39
437,1005922629,0.4263,0.8823,-0.2876,14.33,-5.37,4.51
438,1005927629,0.4292,0.8804,-0.2925,13.48,-5.12,4.70
439,1005932629,0.4277,0.8779,-0.2969,12.87,-4.94,4.82
440,1005937628,0.4194,0.8750,-0.2930,12.62,-4.70,4.94
441,1005942630,0.4141,0.8701,-0.3003,12.50,-4.27,5.12
442,1005947629,0.4126,0.8687,-0.2979,12.74,-4.27,5.30
443,1005952628,0.4087,0.8599,-0.2891,13.05,-3.90,5.55
444,1005957629,0.4062,0.8535,-0.2920,13.54,-3.72,5.73
445,1005962627,0.4058,0.8486,-0.2847,14.39,-3.54,5.85
446,1005967629,0.4160,0.8398,-0.2886,15.37,-3.35,6.04
447,1005972628,0.4219,0.8354,-0.2842,16.52,-3.23,6.10
448,1005977629,0.4331,0.8354,-0.2832,17.62,-2.99,6.04
449,1005982629,0.4365,0.8374,-0.2822,18.48,-2.99,6.04
450,1005987629,0.4307,0.8374,-0.2925,19.09,-2.87,6.04
451,1005992628,0.4292,0.8423,-0.2983,19.02,-2.68,6.10
452,1005997629,0.4243,0.8467,-0.2939,18.54,-2.62,6.16
453,1006002627,0.4302,0.8545,-0.2983,17.62,-2.56,6.28
454,1006007629,0.4297,0.8589,-0.3071,15.91,-2.38,6.52
455,1006012628,0.4326,0.8687,-0.3149,14.15,-2.26,6.83
456,1006017629,0.4370,0.8770,-0.3198,12.01,-2.38,7.13
457,1006022628,0.4414,0.8799,-0.3306,9.88,-2.26,7.32
458,1006027629,0.4409,0.8901,-0.3369,8.17,-2.13,7.74
459,1006032628,0.4399,0.8916,-0.3296,6.77,-2.07,8.05
460,1006037627,0.4463,0.8896,-0.3306,5.79,-1.95,8.35
461,1006042629,0.4409,0.8916,-0.3350,5.30,-1.89,8.72
462,1006047985,0.4336,0.8823,-0.3281,5.43,-1.59,8.90
463,1006052629,0.4453,0.8706,-0.3262,5.79,-1.52,9.15
464,1006057629,0.4468,0.8594,-0.3203,6.46,-1.52,9.33
465,1006062630,0.4453,0.8472,-0.3154,7.44,-1.28,9.63
466,1006067628,0.4380,0.8350,-0.3159,8.72,-1.22,10.00
467,1006072629,0.4341,0.8286,-0.3042,10.30,-1.16,10.06
468,1006077629,0.4385,0.8145,-0.2949,12.01,-1.04,10.24
469,1006082631,0.4448,0.8032,-0.2944,13.66,-0.91,10.30
470,1006087628,0.4443,0.7944,-0.2900,15.00,-0.91,10.24
471,1006092629,0.4463,0.7866,-0.2847,16.10,-0.73,10.24
472,1006097629,0.4424,0.7817,-0.2856,16.65,-0.49,10.12
473,1006102628,0.4458,0.7822,-0.2954,16.34,-0.55,10.12
474,1006107629,0.4434,0.7842,-0.2900,15.49,-0.37,10.12
475,1006112627,0.4370,0.7842,-0.2925,13.96,-0.30,10.12
476,1006117629,0.4360,0.7856,-0.2930,11.89,-0.30,10.18
477,1006122629,0.4326,0.7886,-0.2974,9.51,-0.12,10.37
478,1006127629,0.4385,0.7856,-0.2983,7.07,0.00,10.43
479,1006132627,0.4385,0.7856,-0.3027,4.82,-0.06,10.55
480,1006137629,0.4438,0.7910,-0.3081,3.11,0.06,10.49
481,1006142628,0.4434,0.7930,-0.3115,1.89,0.24,10.61
482,1006147629,0.4482,0.7935,-0.3154,1.46,0.49,10.67
483,1006152629,0.4536,0.7925,-0.3174,1.71,0.55,10.61
484,1006157629,0.4546,0.7871,-0.3125,2.56,0.67,10.61
485,1006162629,0.4590,0.7866,-0.3101,3.96,0.79,10.55
486,1006167628,0.4639,0.7798,-0.3086,5.61,0.79,10.43
487,1006172629,0.4717,0.7871,-0.3076,7.38,0.85,10.24
488,1006177629,0.4756,0.7856,-0.2974,8.78,0.79,10.00
489,1006182629,0.4819,0.7896,-0.3003,9.70,0.85,9.82
490,1006187630,0.4722,0.7900,-0.3110,9.70,0.91,9.70
491,1006192628,0.4609,0.7935,-0.3125,8.96,0.67,9.63
492,1006197630,0.4590,0.7915,-0.3164,7.56,0.79,9.63
493,1006202630,0.4580,0.7944,-0.3096,5.98,0.73,9.76
494,1006207630,0.4629,0.7954,-0.3135,4.33,0.49,9.70
495,1006212629,0.4619,0.7930,-0.3125,2.74,0.61,9.94
496,1006217629,0.4644,0.7905,-0.3164,1.65,0.55,10.06
497,1006222629,0.4648,0.7886,-0.3149,0.85,0.55,10.18
498,1006227628,0.4697,0.7861,-0.3213,0.61,0.73,10.30
499,1006232629,0.4780,0.7852,-0.3184,0.73,0.73,10.37
500,1006237629,0.4912,0.7832,-0.3193,1.28,0.85,10.43
501,1006242629,0.4946,0.7817,-0.3232,1.89,0.98,10.49
502,1006247628,0.4863,0.7803,-0.3311,2.38,1.22,10.55
503,1006252630,0.4858,0.7817,-0.3374,2.99,1.34,10.79
504,1006257643,0.4985,0.7856,-0.3296,3.66,1.52,10.91
505,1006262629,0.5093,0.7910,-0.3369,4.70,1.65,11.16
506,1006267629,0.5054,0.7983,-0.3354,5.30,1.95,11.28
507,1006272632,0.4927,0.8003,-0.3408,5.79,2.26,11.59
508,1006277628,0.5010,0.8052,-0.3398,5.98,2.50,11.83
509,1006282628,0.5020,0.8086,-0.3452,5.79,2.74,12.20
510,1006287670,0.5132,0.8208,-0.3423,5.73,3.17,12.62
511,1006292630,0.5229,0.8257,-0.3433,5.67,3.72,12.93
512,1006297629,0.5225,0.8325,-0.3438,5.49,4.21,13.41
513,1006302628,0.5259,0.8389,-0.3438,5.30,4.70,13.60
514,1006307629,0.5386,0.8413,-0.3525,5.00,5.24,13.96
515,1006312627,0.5596,0.8491,-0.3481,4.63,5.85,14.15
516,1006317629,0.5776,0.8579,-0.3545,4.27,6.46,14.27
517,1006322628,0.5879,0.8740,-0.3608,3.84,7.01,14.33
518,1006327630,0.5986,0.8945,-0.3672,3.11,7.74,14.45
519,1006332627,0.6172,0.9131,-0.3799,2.20,8.54,14.45
520,1006337629,0.6304,0.9341,-0.3940,1.22,9.21,14.63
521,1006342629,0.6426,0.9595,-0.3955,0.37,9.88,14.88
522,1006347629,0.6567,0.9814,-0.4038,-0.12,10.73,15.18
523,1006352627,0.6528,0.9976,-0.4146,-0.43,11.59,15.79
524,1006357629,0.6455,1.0142,-0.4185,-0.37,12.50,16.46
525,1006362629,0.6401,1.0356,-0.4238,0.12,13.54,17.68
526,1006367628,0.6318,1.0483,-0.4287,0.73,14.70,19.09
527,1006372629,0.6226,1.0630,-0.4321,1.28,16.16,20.61
528,1006377627,0.6094,1.0732,-0.4409,1.28,17.56,22.50
529,1006382629,0.6025,1.0801,-0.4443,0.91,19.09,24.51
530,1006387629,0.5991,1.0854,-0.4473,0.24,20.73,26.71
531,1006392628,0.5884,1.0898,-0.4517,-0.55,22.68,28.96
532,1006397627,0.5859,1.0962,-0.4526,-1.22,24.76,31.40
533,1006402629,0.5771,1.1079,-0.4565,-1.77,26.89,33.78
534,1006407629,0.5786,1.1172,-0.4521,-2.26,28.96,36.28
535,1006412629,0.5947,1.1260,-0.4561,-2.50,31.40,38.90
536,1006417628,0.5952,1.1372,-0.4648,-3.17,33.78,41.71
537,1006422629,0.5815,1.1538,-0.4712,-3.90,35.98,44.57
538,1006427629,0.5669,1.1724,-0.4810,-5.06,38.23,47.62
539,1006432629,0.5742,1.1704,-0.4771,-6.46,40.49,50.79
540,1006437628,0.5815,1.1816,-0.4805,-7.87,42.80,54.15
541,1006442629,0.5713,1.1895,-0.4858,-9.27,45.12,57.50
542,1006447627,0.5635,1.1899,-0.4888,-10.73,47.13,60.91
543,1006452630,0.5781,1.1895,-0.4780,-11.95,49.15,64.39
544,1006457629,0.5908,1.1792,-0.4780,-12.80,51.04,67.93
545,1006462630,0.6060,1.1641,-0.4688,-13.35,52.80,71.40
546,1006467628,0.6089,1.1519,-0.4668,-13.60,54.45,75.06
547,1006472630,0.5967,1.1328,-0.4609,-13.48,56.22,78.60
548,1006477629,0.5938,1.1240,-0.4453,-12.87,57.62,82.50
549,1006482629,0.5972,1.1118,-0.4458,-11.71,59.15,86.28
550,1006487628,0.5903,1.1016,-0.4380,-10.18,60.55,89.76
551,1006492629,0.5713,1.0938,-0.4365,-8.54,61.83,93.54
552,1006497629,0.5679,1.0776,-0.4321,-7.20,63.17,97.26
553,1006502630,0.5581,1.0649,-0.4253,-6.40,64.45,101.04
554,1006507628,0.5513,1.0566,-0.4224,-5.79,65.61,104.82
555,1006512629,0.5562,1.0459,-0.4170,-5.61,66.71,108.35
556,1006517629,0.5645,1.0356,-0.4092,-5.67,67.62,111.83
557,1006522629,0.5581,1.0205,-0.4019,-6.40,68.66,115.24
558,1006527628,0.5547,1.0029,-0.3989,-7.50,69.45,118.41
559,1006532629,0.5747,0.9800,-0.3911,-8.66,70.12,121.46
560,1006537629,0.5962,0.9570,-0.3799,-9.70,70.73,124.33
561,1006542629,0.6045,0.9331,-0.3726,-10.91,71.28,127.01
562,1006547628,0.5962,0.9019,-0.3579,-12.13,71.71,129.45
563,1006552629,0.5942,0.8687,-0.3477,-13.23,71.89,131.71
564,1006557630,0.6045,0.8271,-0.3291,-14.02,71.89,133.54
565,1006562629,0.6206,0.7896,-0.3096,-14.27,72.01,135.37
566,1006567628,0.6265,0.7520,-0.2832,-13.96,72.01,136.71
567,1006572629,0.6118,0.7119,-0.2676,-13.35,72.13,137.87
568,1006577629,0.6055,0.6694,-0.2505,-12.68,72.01,138.84
569,1006582629,0.6118,0.6309,-0.2295,-12.20,71.77,139.51
570,1006587628,0.6240,0.5928,-0.2114,-11.77,71.34,139.82
571,1006592629,0.6294,0.5596,-0.1851,-11.59,71.22,139.88
572,1006597629,0.6216,0.5205,-0.1724,-11.65,70.73,139.70
573,1006602630,0.6152,0.4790,-0.1519,-12.44,70.30,139.09
574,1006607628,0.6099,0.4399,-0.1235,-13.60,69.63,138.17
575,1006612629,0.6157,0.3994,-0.1094,-15.12,68.90,137.20
576,1006617630,0.6382,0.3755,-0.0845,-16.89,68.05,135.73
577,1006622629,0.6592,0.3521,-0.0615,-19.09,67.20,133.84
578,1006627628,0.6606,0.3198,-0.0439,-21.83,66.22,131.77
579,1006632629,0.6431,0.2861,-0.0312,-25.24,65.43,129.45
580,1006637630,0.6274,0.2583,-0.0225,-29.21,64.27,126.95
581,1006642629,0.6240,0.2261,-0.0161,-33.23,63.17,124.45
582,1006647627,0.6377,0.2031,-0.0049,-36.77,61.59,121.71
583,1006652628,0.6523,0.1963,0.0181,-39.02,60.30,118.84
584,1006657631,0.6611,0.1763,0.0273,-40.12,58.78,115.85
585,1006662628,0.6626,0.1509,0.0474,-40.06,57.44,112.62
586,1006667627,0.6694,0.1328,0.0430,-39.09,55.98,109.33
587,1006672629,0.6743,0.1191,0.0508,-37.07,54.70,105.79
588,1006677631,0.6816,0.0986,0.0688,-34.39,53.35,102.07
589,1006682628,0.6992,0.0728,0.0684,-30.98,52.01,98.35
590,1006687629,0.7051,0.0562,0.0820,-27.20,50.61,94.51
591,1006692627,0.7056,0.0430,0.0879,-23.05,49.02,90.67
592,1006698019,0.7036,0.0215,0.0972,-18.66,47.68,86.28
593,1006702629,0.7104,0.0049,0.0981,-14.27,46.10,82.26
594,1006707629,0.7241,-0.0132,0.1143,-9.82,44.57,77.99
595,1006712627,0.7324,-0.0303,0.1230,-5.55,43.17,73.54
596,1006717631,0.7261,-0.0479,0.1313,-1.77,41.59,69.02
597,1006722627,0.7183,-0.0659,0.1270,1.71,40.06,64.33
598,1006727629,0.7051,-0.0835,0.1396,5.00,38.48,59.57
599,1006732628,0.7173,-0.0723,0.1499,7.74,37.07,54.63
600,1006737630,0.7397,-0.0815,0.1592,9.70,35.73,49.33
601,1006742627,0.7480,-0.0923,0.1699,10.67,34.45,44.02
602,1006747629,0.7354,-0.0967,0.1616,10.49,33.11,38.66
603,1006752628,0.7266,-0.1128,0.1670,9.09,31.77,33.35
604,1006757629,0.7217,-0.1221,0.1699,7.07,30.49,28.35
605,1006762627,0.7139,-0.1211,0.1738,4.88,29.09,23.29
606,1006767629,0.7319,-0.1035,0.1846,2.74,27.56,18.11
607,1006772628,0.7627,-0.0957,0.1787,0.91,26.16,12.93
608,1006777627,0.7524,-0.0957,0.1807,-0.73,24.82,7.62
609,1006782629,0.7349,-0.0942,0.1802,-1.77,23.41,2.62
610,1006787627,0.7280,-0.0913,0.1704,-2.07,21.95,-2.07
611,1006792631,0.7334,-0.0762,0.1660,-1.22,20.37,-6.52
612,1006797628,0.7285,-0.0693,0.1592,0.91,18.90,-10.98
613,1006803201,0.7114,-0.0713,0.1641,4.45,17.56,-15.18
614,1006807734,0.6982,-0.0576,0.1562,9.45,16.16,-18.78
615,1006812629,0.7017,-0.0303,0.1543,15.67,15.06,-22.50
616,1006817629,0.7227,-0.0112,0.1592,22.38,13.96,-26.34
617,1006822642,0.7437,0.0146,0.1626,28.84,12.93,-30.12
618,1006827628,0.7539,0.0581,0.1567,34.39,11.89,-33.84
619,1006832629,0.7554,0.0820,0.1523,38.23,11.10,-37.50
620,1006837629,0.7593,0.1113,0.1465,39.70,10.24,-40.67
621,1006842629,0.7559,0.1445,0.1387,39.09,9.27,-43.48
622,1006847628,0.7593,0.1787,0.1250,36.65,8.41,-45.85
623,1006852629,0.7739,0.2241,0.1226,32.93,7.38,-47.80
624,1006857920,0.7959,0.2646,0.1211,28.35,6.65,-49.45
625,1006862630,0.8062,0.3076,0.1147,23.54,5.91,-50.73
626,1006867629,0.8252,0.3599,0.1021,18.84,5.37,-51.46
627,1006872628,0.8560,0.4058,0.0967,14.57,4.76,-51.89
628,1006877629,0.8818,0.4521,0.0825,10.91,4.70,-51.65
629,1006882627,0.9072,0.5068,0.0708,7.93,4.70,-50.98
630,1006887629,0.9380,0.5728,0.0591,5.73,5.00,-49.70
631,1006892628,0.9600,0.6392,0.0405,3.96,5.55,-47.74
632,1006897629,0.9785,0.7183,0.0181,2.01,6.16,-45.06
633,1006902629,1.0015,0.8057,-0.0068,-0.43,6.95,-41.65
634,1006907629,1.0200,0.8857,-0.0107,-3.41,8.05,-37.50
635,1006912628,1.0024,0.9668,-0.0308,-7.87,9.27,-32.32
636,1006917629,0.9790,1.0459,-0.0537,-13.66,10.37,-26.22
637,1006922627,0.9648,1.1201,-0.0742,-20.49,11.34,-19.45
638,1006927631,0.9556,1.1816,-0.0884,-27.32,12.38,-11.71
639,1006932628,0.9517,1.2378,-0.0830,-33.35,13.29,-3.41
640,1006937629,0.9434,1.2769,-0.0859,-37.56,14.45,5.67
641,1006942628,0.9360,1.2954,-0.0835,-39.88,15.55,14.94
642,1006947629,0.9253,1.2983,-0.0820,-39.88,16.59,24.63
643,1006952628,0.9082,1.2856,-0.0723,-38.41,17.68,34.57
644,1006957652,0.8896,1.2588,-0.0527,-35.30,18.66,44.39
645,1006962631,0.8662,1.2139,-0.0269,-31.04,19.45,54.15
646,1006967627,0.8569,1.1562,-0.0039,-26.65,20.06,63.29
647,1006972629,0.8403,1.0850,0.0239,-22.68,20.37,72.13
648,1006977629,0.8232,1.0044,0.0605,-19.51,20.55,80.24
649,1006982627,0.8076,0.9141,0.0938,-17.74,20.43,87.07
650,1006987627,0.7852,0.8218,0.1226,-17.13,19.82,94.09
651,1006992742,0.7656,0.7144,0.1543,-17.87,19.21,99.70
652,1006997629,0.7476,0.6089,0.1821,-19.09,17.87,104.33
653,1007002628,0.7407,0.4976,0.2036,-20.73,16.46,108.17
654,1007007629,0.7417,0.3794,0.2178,-22.50,14.76,110.85
655,1007012627,0.7314,0.2632,0.2334,-23.96,12.80,112.44
656,1007017629,0.7285,0.1572,0.2397,-24.82,10.55,112.93
657,1007022628,0.7407,0.0435,0.2383,-24.33,8.23,112.07
658,1007027629,0.7515,-0.0737,0.2422,-22.20,5.85,110.12
659,1007032627,0.7646,-0.1880,0.2407,-18.11,3.66,106.89
660,1007037629,0.7559,-0.2915,0.2363,-12.38,1.52,102.44
661,1007042628,0.7578,-0.3945,0.2388,-5.30,-0.55,96.59
662,1007047752,0.7314,-0.4941,0.2402,2.87,-2.38,89.94
663,1007052627,0.7363,-0.5864,0.2368,11.16,-4.15,81.65
664,1007057629,0.7568,-0.6670,0.2520,19.45,-5.61,72.44
665,1007062628,0.7446,-0.7456,0.2441,27.26,-7.07,62.20
666,1007067627,0.7432,-0.8110,0.2485,34.09,-8.48,50.85
667,1007072629,0.7554,-0.8569,0.2490,39.15,-9.57,38.35
668,1007077647,0.7612,-0.9121,0.2539,41.83,-10.67,25.00
669,1007082629,0.7388,-0.9556,0.2578,42.07,-11.89,11.10
670,1007087629,0.7329,-0.9878,0.2578,40.18,-12.80,-3.41
671,1007092630,0.7275,-1.0117,0.2441,36.46,-13.78,-18.05
672,1007097628,0.7080,-1.0205,0.2490,32.13,-14.63,-33.05
673,1007102629,0.6929,-1.0200,0.2544,27.44,-15.06,-48.11
674,1007107629,0.6909,-1.0132,0.2490,22.80,-15.49,-63.17
675,1007112630,0.6987,-1.0010,0.2515,18.17,-15.85,-78.29
676,1007117628,0.7056,-0.9927,0.2495,13.48,-16.10,-93.35
677,1007122630,0.7285,-0.9751,0.2397,9.09,-16.40,-108.11
678,1007127629,0.7451,-0.9443,0.2344,5.55,-16.89,-122.80
679,1007132629,0.7495,-0.8975,0.2148,3.72,-17.13,-137.26
680,1007137628,0.7549,-0.8428,0.2119,3.66,-17.56,-151.46
681,1007142629,0.7617,-0.7773,0.1846,5.24,-17.93,-165.43
682,1007147628,0.7856,-0.6597,0.1289,8.48,-18.72,-179.02
683,1007152629,0.8379,-0.5195,0.0942,13.41,-19.39,-192.26
684,1007157629,0.8179,-0.4136,0.0742,20.43,-19.51,-204.45
685,1007162629,0.7246,-0.3149,0.0376,27.74,-19.27,-215.18
686,1007167628,0.6284,-0.2134,-0.0059,34.70,-18.41,-224.02
687,1007172630,0.5625,-0.1108,-0.0464,40.67,-16.77,-230.85
688,1007177627,0.5176,0.0137,-0.0791,46.16,-15.37,-236.16
689,1007182629,0.5024,0.1455,-0.1167,51.22,-13.41,-240.12
690,1007187628,0.4912,0.2744,-0.1455,56.40,-11.10,-242.93
691,1007192628,0.4785,0.4185,-0.1743,61.34,-8.41,-244.27
692,1007197632,0.4800,0.5645,-0.2207,65.85,-5.61,-244.51
693,1007202629,0.2441,2.9761,-0.2422,69.82,-2.20,-243.54
694,1007207629,0.8457,5.2031,0.3506,43.05,-2.62,-99.27
695,1007212627,1.1680,8.7617,0.2217,-6.28,-5.61,-32.99
696,1007217629,0.9668,5.2676,0.4141,-49.82,-8.60,0.67
697,1007222628,0.8506,1.3477,0.5952,-72.38,-5.91,22.68
698,1007227629,0.8599,-0.1768,-0.0327,-76.46,-3.84,37.68
699,1007232627,0.9585,0.5581,-0.4727,-62.87,-2.56,45.24
700,1007237629,0.9229,1.7417,-0.2134,-41.16,1.52,48.17
701,1007242628,0.9243,1.8481,-0.2188,-21.10,5.91,50.06
702,1007247630,0.9834,1.1641,-0.2988,-5.37,8.96,53.23
703,1007252627,1.0156,0.6562,-0.1440,5.06,12.56,57.44
704,1007257631,1.0342,0.7148,-0.1431,9.76,15.91,61.28
705,1007262628,1.0537,1.0513,-0.2290,9.27,18.48,64.27
706,1007267629,1.0601,1.2197,-0.1328,4.45,20.73,66.59
707,1007272629,1.0630,1.0913,-0.0527,-3.96,23.29,68.90
708,1007277996,1.0693,0.8667,-0.0806,-14.94,25.43,71.52
709,1007282629,1.0557,0.7808,-0.0625,-26.89,26.83,74.21
710,1007287629,1.0483,0.8442,-0.0107,-39.15,28.23,76.65
711,1007292629,1.0361,0.9092,-0.0049,-50.98,29.51,78.90
712,1007297628,0.9844,0.9067,0.0024,-62.07,30.30,81.16
713,1007302629,0.9463,0.8442,0.0269,-72.38,30.85,83.66
714,1007307629,0.9243,0.7886,0.0454,-80.79,30.98,86.46
715,1007312629,0.8970,0.7759,0.0439,-86.95,30.73,88.54
716,1007317628,0.8491,0.7798,0.0610,-90.18,30.06,91.77
717,1007322629,0.8247,0.7563,0.0781,-90.06,29.21,94.94
718,1007327629,0.8247,0.6997,0.0757,-86.77,28.11,98.29
719,1007332629,0.8228,0.6475,0.0884,-80.30,26.71,101.71
720,1007337628,0.8218,0.6069,0.1079,-71.34,25.30,105.12
721,1007342629,0.8232,0.5684,0.1250,-60.37,23.72,108.11
722,1007347629,0.8164,0.5273,0.1348,-48.66,22.07,110.79
723,1007352629,0.8081,0.4800,0.1450,-37.07,20.43,113.05
724,1007357629,0.7881,0.4214,0.1499,-26.46,18.66,115.06
725,1007362628,0.7822,0.3677,0.1611,-17.56,16.95,116.52
726,1007367629,0.7734,0.3223,0.1709,-10.55,15.06,117.56
727,1007372629,0.7568,0.2788,0.1729,-5.67,13.17,118.23
728,1007377629,0.7363,0.2300,0.1792,-3.23,11.22,118.35
729,1007382629,0.7168,0.1865,0.1836,-3.17,9.15,118.17
730,1007387628,0.6978,0.1387,0.1855,-5.12,6.95,117.38
731,1007392629,0.6709,0.0708,0.1733,-8.35,4.39,116.28
732,1007397629,0.6577,0.0146,0.1782,-12.32,1.77,114.82
733,1007402629,0.6523,-0.0483,0.1855,-16.10,-0.73,112.87
734,1007407627,0.6504,-0.1045,0.2041,-19.15,-3.05,110.30
735,1007412628,0.6436,-0.1753,0.2046,-21.34,-5.18,107.26
736,1007417631,0.6406,-0.2412,0.1982,-22.32,-7.13,103.60
737,1007422628,0.6328,-0.3169,0.1973,-22.44,-9.15,99.27
738,1007427629,0.6230,-0.4014,0.1919,-21.46,-10.85,94.39
739,1007432627,0.6035,-0.4849,0.1826,-18.84,-12.56,88.96
740,1007437629,0.5786,-0.5615,0.1743,-13.90,-14.09,83.11
741,1007442628,0.5723,-0.6421,0.1704,-6.40,-15.61,76.65
742,1007447629,0.5806,-0.7178,0.1743,3.90,-17.20,69.39
743,1007452628,0.5806,-0.7764,0.1851,16.52,-18.29,61.46
744,1007457629,0.5835,-0.8354,0.1904,30.79,-19.39,52.50
745,1007462628,0.5942,-0.8950,0.1948,45.24,-20.43,42.68
746,1007467629,0.6289,-0.9507,0.1929,58.48,-21.71,31.77
747,1007472678,0.6509,-0.9814,0.1714,69.33,-23.29,20.00
748,1007477627,0.7573,-1.0215,0.2139,77.26,-24.63,7.07
749,1007482629,0.7476,-1.0205,0.2124,82.26,-25.98,-6.65
750,1007487629,0.7446,-1.0352,0.1841,84.15,-27.32,-21.34
751,1007492629,0.7759,-1.0547,0.1963,82.80,-28.54,-36.52
752,1007497629,0.7656,-1.0610,0.1899,78.48,-29.33,-52.26
753,1007502629,0.7446,-1.0679,0.1641,71.34,-29.82,-68.29
754,1007507629,0.7290,-1.0737,0.1548,62.01,-30.06,-84.21
755,1007512628,0.7188,-1.0698,0.1465,51.40,-29.88,-100.00
756,1007517629,0.7100,-1.0508,0.1211,40.98,-29.70,-115.91
757,1007522627,0.7026,-1.0259,0.1040,31.95,-28.90,-131.52
758,1007527629,0.6836,-0.9888,0.1021,25.79,-27.99,-146.89
759,1007532628,0.6499,-0.9458,0.0996,23.17,-26.59,-161.83
760,1007537629,0.6177,-0.9038,0.1001,24.21,-25.24,-176.34
761,1007542627,0.5850,-0.8496,0.0967,28.41,-23.54,-190.37
762,1007547629,0.5630,-0.7812,0.1021,34.33,-22.01,-204.15
763,1007552628,0.5649,-0.6909,0.0957,40.61,-20.37,-217.93
764,1007557630,0.5635,-0.5952,0.0938,45.98,-19.02,-231.46
765,1007562627,0.5498,-0.4966,0.0864,49.09,-17.68,-244.82
766,1007567629,0.5303,-0.3906,0.0747,49.76,-16.59,-257.56
767,1007572628,0.5068,-0.2876,0.0752,47.80,-15.24,-269.57
768,1007577629,0.4648,-0.1875,0.0669,43.54,-13.78,-280.61
769,1007582627,0.4111,-0.0859,0.0493,37.80,-12.01,-290.30
770,1007587629,0.3638,0.0220,0.0347,31.59,-10.18,-298.54
771,1007592628,0.3374,0.1235,0.0205,25.49,-8.05,-305.18
772,1007597629,0.2944,0.2393,0.0000,20.49,-5.91,-310.12
773,1007602627,0.8062,12.9170,0.5547,41.89,0.79,-241.77
774,1007607629,0.6250,0.7383,-0.0400,6.10,-11.71,-70.12
775,1007612628,1.2451,0.9331,0.7407,-49.57,-22.62,-21.28
776,1007617629,1.1851,3.7842,0.3750,-43.11,-16.89,-2.13
777,1007622627,0.8960,4.0811,-0.6265,-7.07,-13.96,6.04
778,1007627632,0.7310,1.4580,-0.1538,20.06,-13.17,10.91
779,1007632628,0.8481,-0.7441,0.3267,28.78,-10.49,15.00
780,1007637629,0.8511,-0.6509,-0.1816,30.91,-10.73,17.93
781,1007642627,0.7832,0.6514,-0.2109,32.32,-13.35,17.56
782,1007647629,0.7812,1.3940,0.2075,30.91,-13.41,14.57
783,1007652628,0.8325,1.0107,0.1538,24.57,-13.60,11.40
784,1007657630,0.8535,0.2651,0.0181,14.15,-15.67,9.33
785,1007662627,0.8267,-0.0137,0.1470,1.59,-17.38,7.74
786,1007667629,0.8086,0.2656,0.1523,-10.73,-18.29,5.79
787,1007672628,0.8022,0.6460,0.0483,-21.40,-19.88,3.35
788,1007677627,0.7900,0.7197,0.1187,-30.43,-20.98,1.04
789,1007682724,0.7808,0.5186,0.1533,-37.38,-21.52,-0.79
790,1007687629,0.7729,0.3438,0.0864,-42.56,-22.32,-2.20
791,1007692629,0.7466,0.3623,0.0771,-45.67,-23.23,-3.29
792,1007697628,0.7153,0.4990,0.1108,-46.83,-23.66,-4.27
793,1007702629,0.6904,0.5688,0.0894,-46.22,-23.96,-4.94
794,1007707629,0.6675,0.5269,0.0645,-44.02,-24.33,-5.30
795,1007712629,0.6504,0.4502,0.0859,-40.18,-24.63,-5.37
796,1007717628,0.6328,0.4360,0.0811,-35.06,-24.76,-5.37
797,1007722629,0.6157,0.4639,0.0649,-28.66,-25.00,-5.43
798,1007727629,0.6128,0.4863,0.0674,-20.91,-25.49,-5.61
799,1007732630,0.6279,0.4688,0.0762,-12.20,-25.73,-5.73
800,1007737628,0.6411,0.4399,0.0732,-2.56,-26.22,-5.73
801,1007742629,0.6772,0.4106,0.0815,7.32,-26.59,-6.16
802,1007747629,0.7119,0.4199,0.0923,16.52,-26.95,-6.89
803,1007752629,0.7383,0.4302,0.0938,24.57,-27.26,-7.93
804,1007757628,0.7661,0.4248,0.0845,30.55,-27.62,-9.27
805,1007762629,0.7856,0.4150,0.0864,33.84,-27.87,-10.98
806,1007767629,0.7920,0.3906,0.0786,34.33,-28.41,-12.74
807,1007772629,0.7871,0.3730,0.0688,32.44,-29.15,-14.39
808,1007777627,0.7876,0.3730,0.0669,28.48,-29.76,-16.04
809,1007782628,0.7920,0.3828,0.0488,23.23,-30.55,-17.87
810,1007787629,0.8052,0.3862,0.0688,16.65,-31.34,-19.82
811,1007792681,0.8174,0.3701,0.0547,9.45,-31.77,-21.65
812,1007797629,0.8022,0.3643,0.0498,1.65,-32.20,-23.41
813,1007802627,0.7676,0.3735,0.0317,-6.59,-32.62,-25.24
814,1007807629,0.7383,0.3750,0.0205,-14.63,-33.11,-26.95
815,1007812628,0.7236,0.3711,-0.0068,-21.89,-33.78,-28.66
816,1007817629,0.7192,0.3638,-0.0034,-27.38,-34.15,-30.12
817,1007822627,0.7231,0.3594,-0.0093,-30.55,-34.39,-31.46
818,1007827629,0.7393,0.3535,-0.0054,-31.40,-34.51,-32.68
819,1007832629,0.7524,0.3540,0.0034,-29.82,-34.21,-33.72
820,1007837629,0.7651,0.3672,0.0015,-26.83,-33.84,-34.88
821,1007842627,0.7944,0.3799,-0.0068,-22.80,-33.60,-36.16
822,1007847629,0.8179,0.3916,-0.0039,-18.48,-33.23,-37.44
823,1007852628,0.8369,0.4155,0.0015,-13.90,-32.87,-38.96
824,1007857629,0.8774,0.4487,0.0005,-9.94,-32.50,-40.55
825,1007862628,0.9150,0.4761,-0.0044,-7.13,-32.26,-42.32
826,1007867629,0.9121,0.4751,0.0117,-5.49,-32.13,-44.09
827,1007872628,0.8965,0.4775,0.0210,-5.37,-31.71,-45.30
828,1007877629,0.8589,0.4976,0.0034,-7.38,-31.22,-46.46
829,1007882627,0.8159,0.5161,-0.0322,-11.46,-31.10,-47.50
830,1007887649,0.7617,0.5264,-0.0586,-17.13,-31.16,-48.23
831,1007892629,0.7305,0.5254,-0.0732,-23.05,-31.65,-48.90
832,1007897629,0.7061,0.5283,-0.0684,-27.99,-31.95,-49.09
833,1007902628,0.7256,0.5234,-0.0547,-30.91,-31.89,-48.84
834,1007907629,0.7905,0.5107,-0.0430,-31.83,-31.65,-48.11
835,1007912627,0.7988,0.5435,-0.0488,-31.46,-31.77,-47.44
836,1007917629,0.7793,0.5645,-0.0415,-29.39,-31.46,-47.07
837,1007922628,0.7905,0.5806,-0.0186,-25.85,-31.40,-46.83
838,1007927906,0.8384,0.5996,-0.0312,-21.34,-31.40,-46.59
839,1007932629,0.8955,0.6099,-0.0527,-16.83,-31.71,-46.40
840,1007937864,0.9380,0.6240,-0.0581,-12.62,-32.13,-46.46
841,1007942629,0.9604,0.6343,-0.0503,-8.84,-32.68,-46.46
842,1007947629,0.9531,0.6489,-0.0493,-5.67,-33.35,-46.52
843,1007952629,0.9346,0.6660,-0.0566,-3.41,-34.02,-46.46
844,1007957628,0.9053,0.6782,-0.0620,-2.20,-34.57,-46.52
845,1007962630,0.8774,0.6875,-0.0728,-2.32,-35.12,-46.59
846,1007967629,0.8613,0.7036,-0.0552,-3.84,-35.61,-46.52
847,1007972629,0.8521,0.7241,-0.0786,-6.52,-36.04,-46.65
848,1007977630,0.8306,0.7603,-0.0947,-10.43,-36.28,-46.95
849,1007982811,0.7915,0.7764,-0.0923,-14.45,-36.22,-47.38
850,1007987630,0.7559,0.7715,-0.0845,-18.05,-35.91,-47.44
851,1007992627,0.7578,0.7642,-0.0762,-20.55,-35.18,-47.01
852,1007997627,0.7822,0.7749,-0.0811,-22.26,-34.15,-46.28
853,1008002629,0.7944,0.7778,-0.0884,-23.54,-33.11,-45.18
854,1008007629,0.8057,0.7852,-0.1157,-24.21,-31.95,-43.96
855,1008012629,0.8262,0.7949,-0.1138,-23.78,-31.10,-42.32
856,1008017631,0.8091,0.8257,-0.1143,-22.44,-30.00,-40.43
857,1008022628,0.7607,0.8599,-0.1089,-20.55,-28.72,-38.48
858,1008027629,0.7085,0.8911,-0.0991,-18.48,-27.13,-36.40
859,1008032627,0.7036,0.9170,-0.1157,-17.13,-25.55,-34.39
860,1008037629,0.6992,0.9341,-0.1240,-16.89,-23.96,-32.32
861,1008042628,0.6890,0.9595,-0.1357,-17.62,-22.13,-30.30
862,1008047629,0.6841,0.9858,-0.1548,-19.33,-20.55,-28.23
863,1008052627,0.6401,1.0063,-0.1460,-21.71,-18.66,-26.16
864,1008057629,0.6147,1.0200,-0.1357,-24.39,-16.46,-24.27
865,1008062628,0.6431,1.0332,-0.1338,-27.44,-14.02,-22.44
866,1008067629,0.6772,1.0322,-0.1387,-30.73,-11.40,-20.73
867,1008072627,0.6978,1.0347,-0.1431,-34.51,-8.96,-19.15
868,1008077629,0.7002,1.0522,-0.1499,-38.17,-6.59,-17.56
869,1008082628,0.7065,1.0654,-0.1426,-40.85,-4.27,-16.04
870,1008087629,0.7285,1.0781,-0.1348,-42.13,-1.89,-14.39
871,1008092629,0.7383,1.0854,-0.1250,-41.71,0.79,-12.32
872,1008097627,0.7197,1.0972,-0.1118,-39.76,3.29,-9.88
873,1008102631,0.7036,1.1035,-0.1240,-36.52,5.61,-6.83
874,1008107629,0.7104,1.1260,-0.1094,-32.13,7.74,-3.48
875,1008112628,0.7231,1.1431,-0.1016,-27.44,9.51,0.18
876,1008117629,0.6973,1.1807,-0.0615,-22.99,11.22,3.90
877,1008122629,0.6821,1.1860,-0.0732,-19.63,12.99,7.62
878,1008127627,0.6558,1.1826,-0.0796,-17.68,14.63,11.22
879,1008132629,0.6328,1.1763,-0.0811,-17.07,15.85,15.18
880,1008138025,0.6187,1.1709,-0.0796,-17.44,17.32,20.06
881,1008142629,0.6265,1.1665,-0.0771,-18.17,18.11,23.11
882,1008147629,0.6353,1.1538,-0.0596,-19.15,19.45,26.89
883,1008152629,0.5942,1.1528,-0.0610,-20.73,20.73,30.30
884,1008157628,0.5659,1.1182,-0.0557,-23.11,22.13,33.35
885,1008162629,0.5815,1.1035,-0.0640,-25.85,23.35,36.28
886,1008167629,0.5991,1.0854,-0.0464,-28.66,24.51,38.90
887,1008172629,0.6191,1.0742,-0.0366,-31.16,25.67,41.34
888,1008177628,0.6216,1.0713,-0.0239,-32.99,26.83,43.54
889,1008182629,0.6055,1.0586,0.0005,-33.90,27.87,45.79
890,1008187628,0.5864,1.0391,0.0054,-33.90,29.02,47.87
891,1008192628,0.5767,1.0063,0.0366,-32.62,29.82,50.06
892,1008197883,0.5815,0.9790,0.0645,-29.88,30.55,52.13
893,1008202631,0.6021,0.9600,0.1221,-25.67,31.40,54.02
894,1008207630,0.6279,0.9561,0.1748,-20.67,32.07,55.30
895,1008212629,0.6436,0.9097,0.1963,-15.43,32.68,56.34
896,1008217628,0.6470,0.8833,0.2173,-10.30,33.29,57.38
897,1008222740,0.6318,0.8564,0.2539,-5.85,33.72,58.11
898,1008227627,0.6240,0.8218,0.2749,-2.26,34.15,58.90
899,1008232627,0.6304,0.7866,0.2979,0.37,34.39,59.51
900,1008237627,0.6333,0.7515,0.3379,1.83,34.70,60.00
901,1008242627,0.6245,0.7197,0.3696,1.65,34.94,60.43
902,1008247629,0.6230,0.6895,0.3716,0.18,35.12,60.91
903,1008252628,0.6113,0.6733,0.3643,-2.74,34.94,61.16
904,1008257629,0.5884,0.6592,0.3545,-6.65,34.39,61.28
905,1008262627,0.5493,0.6548,0.3491,-10.79,33.96,61.28
906,1008267629,0.5156,0.6348,0.3145,-14.39,33.29,61.04
907,1008272628,0.4897,0.6250,0.2876,-17.07,32.50,60.67
908,1008277629,0.4380,0.6904,0.1938,-17.80,31.46,59.88
909,1008282627,0.5347,0.5986,0.3535,-15.79,31.16,59.02
910,1008287627,0.5596,0.6006,0.3076,-12.62,31.65,58.90
911,1008292629,0.5522,0.6265,0.2148,-8.48,31.77,58.72
912,1008297748,0.5239,0.6152,0.2456,-3.05,31.89,58.29
913,1008302629,0.5127,0.6196,0.2832,3.29,32.44,58.54
914,1008307629,0.5366,0.6587,0.2285,9.51,32.87,58.54
915,1008312629,0.5342,0.6782,0.2021,16.04,32.93,58.41
916,1008317627,0.5381,0.6782,0.2456,22.68,32.99,57.80
917,1008322629,0.6309,0.9346,0.1572,28.05,32.38,56.04
918,1008327629,0.6465,0.6694,0.1079,30.43,30.24,53.23
919,1008332629,0.6128,0.6377,0.1211,33.60,27.50,53.72
920,1008337629,0.6016,0.6011,0.1743,37.87,25.24,55.85
921,1008342629,0.6372,0.6362,0.2148,43.48,23.90,59.15
922,1008347629,0.6611,0.6963,0.1455,50.24,23.35,61.59
923,1008352628,0.6934,0.6909,-0.1089,56.95,21.59,62.80
924,1008357629,0.7002,0.7031,-0.0376,62.38,19.21,62.56
925,1008362627,0.7188,0.5923,0.0474,66.16,17.20,61.83
926,1008367629,0.7358,0.6460,0.0942,67.93,16.04,61.10
927,1008372628,0.7373,0.6821,0.1357,67.62,15.12,59.88
928,1008377630,0.7139,0.6211,0.1406,65.43,14.15,59.27
929,1008382627,0.7275,0.6357,0.0928,62.32,12.87,59.21
930,1008387627,0.8403,0.6602,0.1738,58.41,11.28,58.41
931,1008393033,0.9717,0.6299,0.2529,53.29,9.57,57.01
932,1008397630,1.0630,0.5518,0.3130,50.49,8.48,55.85
933,1008402628,1.1338,0.5234,0.4214,47.99,7.87,54.51
934,1008407627,1.1489,0.5474,0.4517,46.83,6.83,52.87
935,1008412702,1.0693,0.5762,0.3662,47.20,4.88,51.16
936,1008417627,0.9697,0.5981,0.3003,48.90,1.71,49.51
937,1008422627,0.9561,0.6533,0.2705,52.50,-2.32,48.05
938,1008427629,0.9419,0.6187,0.3887,58.05,-5.61,46.71
939,1008432628,0.9429,0.6064,0.3467,64.33,-7.68,45.91
940,1008437741,0.9375,0.6313,0.2651,70.79,-9.76,45.49
941,1008442629,0.9702,0.6641,0.2065,76.77,-11.89,45.00
942,1008447629,1.0420,0.6709,0.1660,81.40,-14.33,44.39
943,1008452628,1.1143,0.6675,0.0713,84.02,-17.20,43.78
944,1008457629,1.1714,0.6753,0.0015,83.96,-21.77,42.20
945,1008462627,1.1455,0.6450,0.0732,80.79,-28.05,38.96
946,1008467627,1.1309,0.5044,0.4287,74.70,-32.26,35.30
947,1008472631,1.2373,0.5391,0.2949,65.73,-33.90,32.56
948,1008477629,1.1147,0.5547,0.1621,53.66,-34.76,29.39
949,1008482628,1.0073,0.6030,0.0293,40.00,-36.16,26.16
950,1008487629,0.9951,0.5781,0.0122,25.91,-36.89,23.48
951,1008492629,0.9897,0.5552,0.0278,12.38,-36.77,22.07
952,1008497627,0.9937,0.5854,0.0293,0.61,-35.79,21.34
953,1008502627,1.0044,0.5464,-0.0083,-8.41,-34.39,20.79
954,1008507627,0.9854,0.5796,-0.0332,-13.84,-32.07,20.79
955,1008512629,0.9590,0.5908,-0.0776,-14.51,-29.02,21.04
956,1008517629,0.9478,0.5742,-0.1440,-10.73,-25.73,22.26
957,1008522627,0.9478,0.5854,-0.1938,-2.87,-22.50,24.70
958,1008527629,0.9487,0.5669,-0.2109,8.11,-19.27,28.17
959,1008532629,0.9531,0.5645,-0.2559,21.04,-16.40,32.44
960,1008537628,0.9482,0.5532,-0.2808,34.09,-14.15,37.32
961,1008542629,0.9292,0.5552,-0.2661,45.85,-11.71,42.20
962,1008547629,0.9102,0.5552,-0.2896,55.55,-9.21,46.40
963,1008552629,0.9038,0.5259,-0.3071,62.74,-6.89,49.76
964,1008557628,0.9077,0.5093,-0.3022,67.80,-3.90,52.32
965,1008562629,0.9023,0.4888,-0.3130,70.24,-0.85,54.21
966,1008567629,0.8838,0.4556,-0.3384,69.88,2.20,55.43
967,1008572629,0.8550,0.4219,-0.3330,67.13,5.30,56.65
968,1008577628,0.8105,0.4048,-0.3242,62.44,8.35,57.68
969,1008582630,0.8110,0.3989,-0.3232,56.59,11.22,58.29
970,1008587629,0.8491,0.3984,-0.2793,50.24,14.02,58.72
971,1008592628,0.8467,0.4180,-0.2427,44.27,16.59,58.48
972,1008597627,0.8242,0.4165,-0.2910,38.66,18.60,57.93
973,1008602629,0.7998,0.4141,-0.3145,33.60,20.24,57.56
974,1008607629,0.7700,0.4072,-0.3184,28.90,21.52,57.26
975,1008612629,0.7681,0.4219,-0.3228,24.63,22.44,56.59
976,1008617629,0.7847,0.4194,-0.3228,21.04,23.05,56.10
977,1008622627,0.8394,0.4033,-0.3213,18.84,23.48,55.30
978,1008627629,0.8486,0.3975,-0.3276,18.17,24.21,54.21
979,1008632628,0.8408,0.3838,-0.3276,18.60,24.70,52.68
980,1008637627,0.8877,0.3545,-0.3101,20.00,25.55,50.91
981,1008642627,0.8989,0.3770,-0.3481,21.71,26.16,49.09
982,1008647629,0.9263,0.3813,-0.3384,23.96,27.01,46.83
983,1008652627,0.9385,0.3887,-0.3125,26.83,28.11,44.39
984,1008657629,0.9165,0.4102,-0.2871,29.51,29.33,42.13
985,1008662630,0.8887,0.4551,-0.2378,31.16,30.73,40.24
986,1008667630,0.8613,0.4775,-0.1963,30.73,32.20,38.96
987,1008672631,0.8496,0.4937,-0.1626,29.09,33.23,38.29
988,1008677629,0.8379,0.4990,-0.1440,26.71,34.15,38.11
989,1008682628,0.8271,0.5190,-0.1245,24.70,34.63,38.35
990,1008687627,0.8203,0.5342,-0.1138,23.54,35.00,38.96
991,1008692629,0.8174,0.5371,-0.1196,22.38,34.94,39.51
992,1008697628,0.8018,0.5410,-0.1226,21.40,34.45,40.37
993,1008702627,0.7778,0.5483,-0.1118,20.43,33.66,41.65
994,1008707629,0.7700,0.5522,-0.0908,19.88,32.80,42.99
995,1008712627,0.7700,0.5449,-0.0913,20.30,31.52,44.63
996,1008717627,0.7754,0.5405,-0.0601,22.26,30.00,46.83
997,1008722629,0.7705,0.5273,-0.0483,24.45,28.78,48.29
998,1008727629,0.7729,0.5063,-0.0308,27.62,27.26,50.00
999,1008732629,0.7881,0.4785,-0.0112,30.98,25.79,51.77
1000,1008737629,0.8159,0.4585,0.0068,34.76,24.09,53.29
1001,1008742629,0.8296,0.4424,0.0210,39.39,22.38,54.57
1002,1008747629,0.8330,0.4263,0.0029,44.57,20.67,55.55
1003,1008752629,0.8325,0.4106,-0.0088,49.82,19.09,56.34
1004,1008757629,0.8467,0.3989,-0.0269,54.45,17.68,56.59
1005,1008762629,0.8667,0.3843,-0.0303,58.11,16.10,56.34
1006,1008767733,0.8862,0.3613,-0.0303,60.49,14.76,55.67
1007,1008772629,0.8984,0.3506,-0.0352,61.46,13.23,54.45
1008,1008777627,0.9019,0.3462,-0.0298,61.71,11.77,52.93
1009,1008782629,0.9087,0.3472,-0.0283,61.52,10.00,50.98
1010,1008787628,0.9058,0.3535,-0.0273,61.10,8.05,49.21
1011,1008792627,0.8896,0.3677,-0.0342,60.12,6.28,47.38
1012,1008797629,0.8530,0.3867,-0.0410,59.02,4.39,45.98
1013,1008802627,0.8276,0.3892,-0.0479,57.07,2.74,44.70
1014,1008807627,0.7939,0.3911,-0.0527,54.51,1.28,43.72
1015,1008812629,0.7700,0.3857,-0.0811,51.83,0.00,43.35
1016,1008817629,0.7524,0.3755,-0.0991,49.82,-0.98,43.29
1017,1008823170,0.7378,0.3584,-0.1338,49.39,-1.59,43.29
1018,1008827629,0.7319,0.3462,-0.1509,50.30,-1.65,43.29
1019,1008832629,0.7314,0.3296,-0.1729,52.68,-1.16,43.17
1020,1008837711,0.7407,0.3130,-0.1836,55.79,-0.49,42.93
1021,1008842627,0.7524,0.3047,-0.1958,58.35,0.61,42.62
1022,1008847631,0.7676,0.2939,-0.2056,60.06,2.13,41.77
1023,1008852629,0.7788,0.2769,-0.2134,60.91,3.54,40.85
1024,1008857629,0.7983,0.2686,-0.2261,61.04,5.12,39.70
1025,1008862628,0.8110,0.2656,-0.2280,61.10,6.65,38.23
1026,1008867629,0.8223,0.2646,-0.2368,61.40,8.41,36.59
1027,1008872629,0.8286,0.2686,-0.2368,62.01,9.82,35.18
1028,1008877629,0.8223,0.2676,-0.2422,63.29,11.22,33.54
1029,1008882628,0.8218,0.2734,-0.2490,65.30,12.44,32.13
1030,1008887629,0.8193,0.2827,-0.2520,67.80,13.60,30.67
1031,1008892693,0.8203,0.2891,-0.2373,70.37,14.63,29.27
1032,1008897629,0.8291,0.2930,-0.2349,72.01,15.79,27.74
1033,1008902628,0.8252,0.3018,-0.2266,72.20,16.77,26.16
1034,1008907628,0.8184,0.3008,-0.2305,71.10,17.87,24.88
1035,1008912630,0.8218,0.3062,-0.2397,69.63,18.90,23.60
1036,1008917629,0.8374,0.3071,-0.2300,69.15,20.00,22.44
1037,1008922629,0.8438,0.2979,-0.2144,70.24,20.98,21.22
1038,1008927629,0.8433,0.2930,-0.2090,72.93,21.95,20.18
1039,1008932628,0.8457,0.2891,-0.2051,77.20,22.80,19.39
1040,1008937629,0.8433,0.2905,-0.1997,82.07,23.60,18.41
1041,1008942629,0.8428,0.2842,-0.1973,87.26,24.45,17.62
1042,1008947629,0.8521,0.2905,-0.1924,92.01,25.18,16.65
1043,1008952628,0.8579,0.2905,-0.1938,95.43,25.98,15.24
1044,1008957630,0.8628,0.2954,-0.1943,97.32,26.89,13.90
1045,1008962627,0.8535,0.3105,-0.1934,97.93,27.99,12.44
1046,1008967627,0.8501,0.3208,-0.1860,97.62,29.39,10.98
1047,1008972627,0.8511,0.3311,-0.1851,96.83,30.73,9.82
1048,1008977893,0.8530,0.3428,-0.1626,95.49,32.44,8.66
1049,1008983141,0.8613,0.3643,-0.1494,94.63,33.84,7.93
1050,1008987629,0.8564,0.3760,-0.1387,94.09,35.00,7.56
1051,1008992629,0.8521,0.3872,-0.1138,93.84,36.46,7.20
1052,1008997629,0.8604,0.4004,-0.0972,94.15,37.38,7.26
1053,1009002628,0.8643,0.4141,-0.0752,94.82,38.23,7.38
1054,1009007629,0.8745,0.4194,-0.0522,95.49,38.72,7.68
1055,1009012629,0.8892,0.4199,-0.0220,96.34,38.66,7.93
1056,1009017629,0.9062,0.4204,-0.0117,96.83,38.54,7.99
1057,1009022630,0.9189,0.4170,0.0044,97.26,38.17,7.87
1058,1009027629,0.9326,0.4155,0.0088,98.05,37.44,7.74
1059,1009032629,0.9277,0.4150,0.0068,99.09,37.01,7.32
1060,1009037629,0.9624,0.3657,0.0459,100.55,36.59,7.01
1061,1009042628,0.8223,0.4604,0.0552,103.17,36.83,6.40
1062,1009047629,0.9111,0.4453,-0.0112,106.89,36.83,5.79
1063,1009052770,0.9116,0.4272,0.0063,105.61,37.44,4.63
1064,1009057629,0.8994,0.4102,0.0928,101.40,38.17,3.72
1065,1009063159,0.9019,0.4214,0.1001,94.94,39.21,2.13
1066,1009067629,0.8950,0.4399,0.1172,91.83,39.94,1.10
1067,1009072629,0.8921,0.4302,0.1304,89.02,40.49,0.43
1068,1009077629,0.9004,0.4458,0.1514,87.87,40.49,-0.06
1069,1009082630,0.9028,0.4531,0.1753,88.72,40.30,-0.12
1070,1009087629,0.8906,0.4478,0.1763,90.24,39.63,0.00
1071,1009092629,0.8882,0.4468,0.1636,91.65,38.41,0.43
1072,1009097629,0.8823,0.4307,0.1714,92.87,37.32,0.73
1073,1009102628,0.8799,0.4121,0.1714,94.02,36.10,1.10
1074,1009107629,0.8887,0.3833,0.1577,95.37,34.63,1.28
1075,1009112629,0.9004,0.3569,0.1572,97.38,33.35,1.04
1076,1009117630,0.9014,0.3281,0.1597,100.55,32.44,0.61
1077,1009122629,0.9038,0.3081,0.1621,103.90,31.89,-0.18
1078,1009127627,0.9121,0.2974,0.1553,106.59,31.65,-1.28
1079,1009132628,0.9170,0.3013,0.1572,108.48,32.01,-2.68
1080,1009137629,0.9004,0.3062,0.1553,108.96,33.17,-4.15
1081,1009142629,0.8833,0.3208,0.1274,108.11,34.63,-5.49
1082,1009147629,0.8745,0.3486,0.1206,107.07,36.52,-6.71
1083,1009152627,0.8662,0.3628,0.1172,106.40,38.78,-7.99
1084,1009157628,0.8638,0.3784,0.1206,104.88,41.16,-9.33
1085,1009162630,0.8633,0.3823,0.1284,102.38,43.48,-10.55
1086,1009167629,0.8613,0.3809,0.1343,99.09,45.18,-11.77
1087,1009172629,0.8682,0.3691,0.1309,96.34,46.77,-13.11
1088,1009177628,0.8789,0.3501,0.1475,94.82,47.93,-14.70
1089,1009182629,0.8813,0.3301,0.1528,94.39,48.60,-16.65
1090,1009187628,0.8828,0.3135,0.1724,94.57,49.02,-18.78
1091,1009192628,0.8843,0.2944,0.1870,95.55,49.09,-20.91
1092,1009197633,0.8867,0.2886,0.2041,98.66,48.96,-23.29
1093,1009202632,0.8955,0.2925,0.2192,101.40,48.84,-24.88
1094,1009207627,0.8950,0.3052,0.2314,104.45,48.78,-26.71
1095,1009212629,0.8936,0.3315,0.2397,106.52,48.66,-28.23
1096,1009217629,0.8779,0.3657,0.2314,107.68,49.02,-29.51
1097,1009222638,0.8623,0.3975,0.2305,107.99,49.63,-30.24
1098,1009227630,0.8403,0.4326,0.2222,107.38,50.37,-30.49
1099,1009232629,0.8281,0.4492,0.2109,106.71,51.34,-30.67
1100,1009237630,0.8174,0.4692,0.2090,105.91,52.44,-30.55
1101,1009242628,0.8296,0.4946,0.2163,104.63,53.72,-30.85
1102,1009247629,0.8159,0.5068,0.2197,101.89,54.82,-31.16
1103,1009253129,0.8188,0.5283,0.2061,97.13,55.79,-31.46
1104,1009257629,0.8320,0.5444,0.2109,93.90,56.46,-31.59
1105,1009262628,0.8423,0.5469,0.2026,92.32,56.89,-31.71
1106,1009267629,0.8433,0.5425,0.2061,91.34,57.01,-31.89
1107,1009272629,0.8306,0.5293,0.2056,90.91,56.89,-32.26
1108,1009277628,0.8208,0.4976,0.2056,90.85,56.52,-32.62
1109,1009282629,0.8198,0.4688,0.2046,92.07,56.16,-33.05
1110,1009287627,0.8154,0.4194,0.2075,94.94,55.55,-33.60
1111,1009292629,0.8057,0.3740,0.2051,99.09,55.00,-34.51
1112,1009297628,0.8027,0.3315,0.2261,103.78,54.57,-35.91
1113,1009302629,0.7993,0.2998,0.2275,107.93,54.21,-37.80
1114,1009307627,0.7798,0.2920,0.2368,111.16,53.96,-40.00
1115,1009312629,0.7651,0.3008,0.2354,112.44,54.39,-42.38
1116,1009317628,0.7471,0.3159,0.2319,111.10,55.24,-44.82
1117,1009322629,0.7388,0.3369,0.2266,108.72,56.40,-47.01
1118,1009327629,0.7363,0.3667,0.2275,106.65,57.44,-49.02
1119,1009332629,0.7290,0.3955,0.2119,105.24,58.41,-50.91
1120,1009337629,0.7251,0.4438,0.2036,104.27,59.33,-52.38
1121,1009343153,0.7227,0.4878,0.1919,103.11,60.06,-54.15
1122,1009347631,0.7246,0.5127,0.1855,101.89,60.30,-55.00
1123,1009352629,0.7295,0.5439,0.1753,100.06,60.61,-55.85
1124,1009357629,0.7368,0.5449,0.1616,98.90,60.55,-56.59
1125,1009362628,0.7422,0.5278,0.1621,98.96,60.43,-57.44
1126,1009367629,0.7607,0.4971,0.1553,100.98,60.37,-58.23
1127,1009372629,0.7769,0.4507,0.1558,105.18,60.18,-59.33
1128,1009377629,0.7988,0.3994,0.1562,110.61,60.12,-60.91
1129,1009382627,0.8115,0.3452,0.1611,116.10,60.43,-63.11
1130,1009387627,0.8125,0.2983,0.1528,120.79,60.85,-65.85
1131,1009392627,0.8062,0.2998,0.1582,124.27,62.13,-69.21
1132,1009397629,0.7505,0.3394,0.1489,124.70,64.76,-74.02
1133,1009402629,0.6816,0.3745,0.1216,121.59,66.95,-76.89
1134,1009407629,0.6182,0.4395,0.0947,114.51,71.04,-79.94
1135,1009412631,0.6021,0.4980,0.0957,110.98,74.45,-81.34
1136,1009417628,0.5757,0.5342,0.0898,110.55,77.07,-82.26
1137,1009422627,0.5649,0.5732,0.0786,112.07,79.70,-82.74
1138,1009427628,0.5845,0.6055,0.0752,116.10,81.71,-82.87
1139,1009432629,0.6089,0.6250,0.0884,119.94,82.56,-82.87
1140,1009437629,0.6309,0.6294,0.0884,123.35,83.11,-83.05
1141,1009442627,0.6724,0.6343,0.0874,127.13,83.41,-83.66
1142,1009447627,0.6938,0.6284,0.0840,130.79,83.60,-84.82
1143,1009452627,0.6958,0.6060,0.0649,134.15,84.45,-86.52
1144,1009457627,0.7080,0.5718,0.0381,136.46,84.21,-88.54
1145,1009462627,0.7168,0.5059,0.0059,139.94,85.79,-90.85
1146,1009467627,0.7339,0.4712,-0.0171,146.40,86.04,-95.06
1147,1009472629,0.6904,0.4678,-0.0015,148.60,88.84,-100.67
1148,1009477629,0.5986,0.4487,-0.0312,142.62,91.83,-107.01
1149,1009482627,0.5493,0.4810,-0.0464,133.60,94.51,-111.59
1150,1009487627,0.4971,0.5322,-0.0723,122.93,98.41,-116.28
1151,1009492627,0.4473,0.6040,-0.0674,117.07,102.44,-120.00
1152,1009497627,0.3867,0.6626,-0.0630,116.89,106.46,-122.56
1153,1009502627,0.3262,0.7236,-0.0610,119.57,109.76,-124.33
1154,1009507627,0.2881,0.7681,-0.0415,122.13,112.50,-124.94
1155,1009512639,0.2856,0.7988,-0.0254,123.90,114.57,-124.94
1156,1009517627,0.2954,0.8091,-0.0176,126.71,115.18,-124.76
1157,1009522627,0.3203,0.7930,-0.0137,132.68,115.49,-124.45
1158,1009527627,0.3481,0.7461,-0.0205,143.05,115.18,-124.45
1159,1009532627,0.3882,0.6543,-0.0327,156.16,114.21,-125.12
1160,1009537627,0.4321,0.5278,-0.0312,171.28,112.99,-127.50
1161,1009542629,0.4473,0.3789,-0.0200,190.61,111.40,-133.17
1162,1009547629,0.4199,0.2876,-0.0112,202.44,110.00,-139.09
1163,1009552627,0.3794,0.2471,-0.0176,212.87,108.72,-148.90
1164,1009557627,0.3032,0.3394,-0.0195,214.02,108.05,-161.04
1165,1009562627,0.0757,0.4541,-0.0278,199.88,108.84,-173.48
1166,1009567627,-0.1230,0.6470,-0.0957,172.38,111.71,-182.87
1167,1009572627,-0.2222,0.8467,-0.1865,144.94,116.22,-187.93
1168,1009577629,-0.3013,1.0020,-0.1528,128.54,121.83,-189.57
1169,1009582661,-0.3540,1.0894,-0.2065,126.28,126.83,-188.90
1170,1009587627,-0.3555,1.1333,-0.1948,134.21,129.70,-186.89
1171,1009592629,-0.2754,1.1211,-0.1523,150.06,131.46,-183.41
1172,1009597631,-0.1514,1.0430,-0.1040,163.35,130.73,-181.04
1173,1009602629,-0.0562,0.9214,-0.0508,175.79,128.60,-180.18
1174,1009607640,-0.0098,0.7603,0.0029,188.23,125.43,-181.71
1175,1009612629,-0.0166,0.5786,0.0024,200.98,121.40,-186.04
1176,1009618132,-0.0093,0.3931,0.0371,214.15,116.95,-193.60
1177,1009622629,-0.0771,0.2373,0.0220,227.13,112.56,-203.90
1178,1009627627,-0.1836,0.1416,-0.0254,237.38,107.93,-216.65
1179,1009632629,-0.3169,0.1367,-0.0693,243.90,103.72,-230.91
1180,1009637631,-0.4844,0.1826,-0.1792,246.16,100.24,-245.30
1181,1009642629,-0.6704,0.3013,-0.3154,245.37,97.87,-258.54
1182,1009647629,-0.8188,0.4600,-0.4717,242.80,97.13,-270.00
1183,1009652629,-0.9517,0.6519,-0.6157,239.02,97.68,-279.09
1184,1009657644,-1.0723,0.8638,-0.7598,233.11,99.70,-285.67
1185,1009662631,-1.1426,1.0928,-0.8984,225.30,103.29,-289.27
1186,1009667629,-1.1631,1.2861,-1.0259,217.20,108.11,-289.51
1187,1009672630,-1.0796,1.4321,-1.1060,213.54,114.09,-287.13
1188,1009677628,-0.9800,1.5127,-1.1191,217.38,120.24,-282.87
1189,1009682627,-0.9907,1.5444,-1.0562,226.65,125.37,-278.29
1190,1009687628,-1.0591,1.5273,-0.9478,237.93,129.09,-274.57
1191,1009692629,-1.1313,1.4717,-0.8145,247.93,131.16,-272.26
1192,1009697629,-1.1714,1.3843,-0.6855,254.51,131.46,-271.34
1193,1009702629,-1.1899,1.2925,-0.5801,257.50,130.49,-271.83
1194,1009707628,-1.2251,1.2026,-0.4810,257.20,128.29,-273.35
1195,1009712629,-1.3096,1.1050,-0.3916,255.49,125.24,-275.61
1196,1009717629,-1.3140,1.0337,-0.3179,253.35,121.10,-278.23
1197,1009722629,-1.3691,0.9922,-0.2690,252.44,115.98,-280.67
1198,1009727628,-1.3770,0.9629,-0.2207,252.62,109.63,-283.17
1199,1009732672,-1.4014,0.9780,-0.1855,254.02,102.56,-285.24
1200,1009737627,-1.4468,1.0493,-0.2007,256.16,94.57,-286.71
1201,1009742627,-1.4883,1.1675,-0.2275,258.05,87.50,-286.95
1202,1009747701,-1.5181,1.3242,-0.2754,260.37,80.00,-285.37
1203,1009752629,-1.5337,1.4829,-0.3076,262.44,73.90,-281.71
1204,1009757629,-1.5508,1.6333,-0.3164,263.48,68.41,-275.91
1205,1009762632,-1.5728,1.7759,-0.2900,263.11,63.48,-268.11
1206,1009767814,-1.5767,1.9067,-0.2383,261.65,59.09,-258.35
1207,1009772687,-1.5527,2.0195,-0.1606,258.17,54.45,-247.38
1208,1009777630,-1.5425,2.1250,-0.0581,252.20,48.84,-235.18
1209,1009782629,-1.5571,2.1885,0.0938,243.11,42.50,-221.83
1210,1009787628,-1.6035,2.2407,0.2627,230.98,34.51,-207.20
1211,1009792629,-1.6582,2.2744,0.4268,217.07,24.70,-191.40
1212,1009797629,-1.7280,2.3223,0.5894,204.70,13.17,-174.15
1213,1009802629,-1.7754,2.3511,0.7646,197.20,-0.61,-155.18
1214,1009807628,-1.7896,2.3687,0.9663,196.46,-15.73,-134.94
1215,1009812719,-1.8374,2.3892,1.1392,201.52,-32.99,-113.60
1216,1009817630,-1.9424,2.4092,1.2852,210.18,-52.07,-90.85
1217,1009822629,-2.0322,2.4160,1.4438,220.30,-73.23,-67.01
1218,1009827630,-2.1206,2.4717,1.5786,230.49,-95.91,-41.95
1219,1009832629,-2.2280,2.4971,1.7695,238.66,-119.82,-16.34
1220,1009837627,-2.3906,2.5674,1.8853,243.54,-144.82,10.24
1221,1009842627,-2.5391,2.6709,1.9312,244.21,-171.46,37.44
1222,1009847631,-2.6860,2.8149,1.9683,241.28,-199.21,65.37
1223,1009852628,-2.7578,3.1636,2.1064,237.38,-227.50,93.35
1224,1009857628,-2.6543,3.9380,2.3872,232.44,-255.55,120.85
1225,1009862629,-2.3154,5.8564,3.0122,225.49,-283.54,148.17
1226,1009867628,-2.5181,7.4272,3.3062,212.44,-314.76,181.89
1227,1009873138,-2.7173,8.2837,3.2246,174.45,-356.40,228.90
1228,1009877629,-3.1680,7.9043,3.2388,120.79,-408.23,288.41
1229,1009882628,-3.9990,6.6338,3.3828,74.21,-466.83,354.45
1230,1009887979,-5.6953,4.7759,3.5078,38.41,-523.90,417.44
1231,1009892629,-6.5312,3.2578,3.3076,0.73,-575.85,468.41
1232,1009897629,-7.4150,2.1855,2.6973,-22.01,-621.95,505.55
1233,1009902629,-8.1387,1.6084,2.0605,-33.48,-662.56,532.13
1234,1009907744,-8.7451,1.3208,1.4248,-25.73,-697.20,551.65
1235,1009912629,-9.4272,1.1548,0.9551,0.55,-725.98,568.11
1236,1009917627,-10.0269,1.1660,0.5264,36.65,-748.41,584.15
1237,1009922630,-10.5728,1.2178,0.1143,70.73,-765.30,599.76
1238,1009927629,-10.9194,1.3594,-0.2246,97.38,-777.13,615.00
1239,1009932629,-11.1670,1.5977,-0.5972,113.66,-785.67,629.70
1240,1009937627,-11.3271,1.8970,-0.9219,121.22,-791.77,644.33
1241,1009942627,-11.5615,2.2715,-1.2393,118.35,-795.55,658.54
1242,1009947631,-11.8071,2.7031,-1.5244,105.24,-797.62,672.56
1243,1009952628,-12.0161,2.9517,-1.9995,76.65,-799.63,687.87
1244,1009957629,-12.1626,3.4058,-2.4165,26.77,-803.35,703.35
1245,1009962627,-12.3843,3.6963,-2.8462,-41.83,-809.45,716.71
1246,1009967629,-12.6460,3.9868,-3.1885,-120.43,-816.28,726.59
1247,1009972628,-12.8774,4.2261,-3.7104,-202.62,-824.02,732.56
1248,1009977631,-13.0264,4.5391,-4.2354,-282.87,-832.87,734.15
1249,1009982627,-13.0596,4.8208,-4.8140,-353.60,-841.04,731.71
1250,1009987629,-12.9482,5.1343,-5.3613,-406.10,-848.11,726.34
1251,1009992628,-13.2578,5.4233,-5.6860,-441.10,-850.43,719.39
1252,1009997629,-13.3193,5.6499,-6.2798,-453.66,-847.20,712.93
1253,1010002627,-13.1226,5.9062,-6.6782,-446.77,-837.80,709.21
1254,1010007629,-12.8208,6.0762,-7.0908,-429.33,-821.65,709.63
1255,1010012628,-12.3652,6.2305,-7.4531,-410.91,-800.12,714.09
1256,1010017630,-11.8433,6.3047,-7.8408,-403.35,-775.30,721.52
1257,1010022627,-11.4966,6.3579,-8.0166,-409.82,-748.96,730.98
1258,1010027631,-11.0557,6.3857,-7.9985,-426.22,-721.22,741.52
1259,1010032628,-10.6636,6.4321,-8.1440,-447.56,-694.63,752.50
1260,1010037656,-10.3916,6.4800,-8.1509,-472.13,-669.27,763.41
1261,1010042629,-10.1533,6.5132,-8.0933,-494.94,-645.73,774.45
1262,1010047630,-9.9849,6.5405,-7.9727,-515.98,-624.51,785.85
1263,1010052629,-9.8730,6.6118,-7.8755,-528.78,-605.67,797.74
1264,1010057627,-9.8750,6.6362,-7.6416,-537.62,-589.02,810.67
1265,1010062629,-10.0054,6.7266,-7.4780,-538.90,-574.82,824.09
1266,1010067630,-10.1602,6.7202,-7.2368,-532.68,-562.32,838.05
1267,1010072629,-10.2271,6.7124,-7.0654,-515.61,-550.55,852.93
1268,1010077628,-10.2510,6.6162,-6.8789,-490.24,-538.35,869.51
1269,1010082629,-10.2744,6.4951,-6.7627,-459.09,-525.55,887.32
1270,1010087629,-10.2812,6.3232,-6.6309,-430.37,-511.34,906.16
1271,1010092629,-10.2793,6.0977,-6.4849,-404.94,-497.26,925.00
1272,1010097628,-10.2896,5.8872,-6.3823,-382.44,-482.07,944.02
1273,1010102629,-10.2832,5.6382,-6.1753,-363.72,-466.16,962.07
1274,1010107629,-10.2173,5.3540,-5.9478,-346.28,-449.76,978.17
1275,1010112629,-10.1567,5.0283,-5.6992,-329.76,-432.44,991.77
1276,1010117628,-10.1299,4.6680,-5.4644,-315.79,-414.33,1002.13
1277,1010122630,-10.0137,4.2471,-5.2676,-305.49,-396.65,1008.54
1278,1010127630,-9.7954,3.7412,-5.0571,-296.46,-378.84,1011.16
1279,1010132629,-9.5591,3.3306,-4.9385,-286.22,-359.76,1010.30
1280,1010137628,-9.3608,2.9165,-4.8428,-268.60,-338.90,1007.07
1281,1010142629,-9.0645,2.5151,-4.7178,-242.56,-314.57,1002.62
1282,1010147627,-8.8672,2.1294,-4.6465,-211.40,-287.01,997.20
1283,1010152630,-8.5596,1.8330,-4.4624,-179.51,-256.83,990.73
1284,1010157628,-8.3130,1.5420,-4.3096,-150.43,-225.24,982.68
1285,1010162627,-7.9785,1.2852,-4.1572,-127.38,-193.41,973.41
1286,1010167627,-8.1328,1.2646,-3.9478,-116.34,-158.54,960.43
1287,1010172629,-7.6919,0.5840,-3.7432,-111.71,-132.26,943.11
1288,1010177627,-7.1553,0.1846,-3.6919,-106.59,-105.98,924.33
1289,1010182629,-7.0684,-0.0415,-3.5649,-96.10,-81.04,902.68
1290,1010187629,-6.7563,-0.3691,-3.4038,-79.33,-56.59,878.84
1291,1010192628,-6.4351,-0.6694,-3.2837,-60.67,-32.50,852.80
1292,1010197630,-6.1709,-0.9380,-3.1528,-44.70,-9.70,824.15
1293,1010202631,-5.8623,-1.2002,-2.9507,-32.74,11.46,793.23
1294,1010207629,-5.6714,-1.3354,-2.8906,-29.33,30.61,760.73
1295,1010212629,-5.5342,-1.7593,-2.4404,-32.32,45.79,725.98
1296,1010217628,-5.1572,-1.8701,-2.3940,-32.26,57.87,691.28
1297,1010222629,-4.9360,-1.9556,-2.2554,-24.33,65.79,656.83
1298,1010227632,-4.6870,-2.1138,-1.9619,-6.95,71.34,622.50
1299,1010232629,-4.5088,-2.2383,-1.7744,19.51,75.79,588.23
1300,1010237628,-4.2505,-2.3232,-1.6440,51.04,79.76,553.60
1301,1010242629,-4.0137,-2.4155,-1.4653,84.21,83.72,519.02
1302,1010247627,-3.8633,-2.5107,-1.2666,114.94,86.71,484.45
1303,1010252630,-3.7178,-2.6099,-1.0405,139.45,88.72,449.94
1304,1010257629,-3.6211,-2.6992,-0.8691,155.18,91.89,415.85
1305,1010262627,-3.5107,-2.7510,-0.7178,162.38,94.82,381.95
1306,1010267627,-3.3428,-2.7642,-0.5337,162.93,97.50,348.41
1307,1010272627,-3.1846,-2.7686,-0.3652,159.51,99.21,315.30
1308,1010277627,-2.9834,-2.7808,-0.2124,154.09,100.12,283.29
1309,1010282631,-2.7734,-2.7563,-0.0723,147.62,99.76,252.38
1310,1010288089,-2.5957,-2.7373,0.0049,142.13,97.93,222.74
1311,1010292629,-2.2910,-2.6582,0.1689,138.41,93.60,194.45
1312,1010297865,-2.0923,-2.6338,0.1719,138.66,90.67,168.60
1313,1010302629,-1.7759,-2.5854,0.3779,141.89,86.22,143.41
1314,1010307630,-1.6123,-2.4785,0.2803,146.95,80.98,118.90
1315,1010312629,-1.3896,-2.3931,0.3613,152.93,75.61,95.18
1316,1010317628,-1.1719,-2.3013,0.4546,157.07,70.12,72.01
1317,1010322629,-0.9893,-2.1875,0.4478,157.07,64.51,50.18
1318,1010327629,-0.8296,-2.0400,0.4497,151.10,58.84,29.76
1319,1010332629,-0.6655,-1.9019,0.4556,138.54,53.11,10.98
1320,1010337627,-0.5234,-1.7451,0.4399,120.18,47.93,-5.98
1321,1010342627,-0.3926,-1.5640,0.3906,97.80,42.93,-21.28
1322,1010347627,-0.2739,-1.3828,0.3262,75.37,38.66,-34.76
1323,1010353080,-0.1870,-1.1865,0.2573,55.67,35.67,-46.40
1324,1010357629,-0.1494,-0.9854,0.1914,40.79,33.54,-55.67
1325,1010362628,-0.1216,-0.7959,0.1289,30.49,32.26,-62.50
1326,1010367629,-0.1191,-0.6270,0.0518,22.99,31.71,-66.46
1327,1010372627,-0.1489,-0.4463,-0.0161,17.38,31.59,-67.62
1328,1010377666,-0.1895,-0.2729,-0.0718,12.68,32.01,-66.16
1329,1010382627,-0.2461,-0.1265,-0.1255,8.35,32.93,-62.38
1330,1010387627,-0.3071,-0.0166,-0.1948,4.27,34.15,-56.59
1331,1010392697,-0.3818,0.0742,-0.2114,0.55,35.61,-49.09
1332,1010397631,-0.4414,0.1182,-0.2554,-2.38,37.32,-40.30
1333,1010402628,-0.4751,0.1616,-0.2817,-3.48,38.90,-30.67
1334,1010407628,-0.5010,0.1738,-0.2935,-2.87,40.00,-20.67
1335,1010412629,-0.5396,0.1738,-0.2979,-1.52,40.91,-10.43
1336,1010417628,-0.5562,0.1548,-0.2871,0.06,41.10,-0.24
1337,1010422629,-0.5464,0.1265,-0.2534,1.59,40.55,9.57
1338,1010427628,-0.5181,0.0669,-0.2212,2.38,39.09,18.96
1339,1010432629,-0.4741,-0.0146,-0.1812,1.71,36.83,27.44
1340,1010437627,-0.4287,-0.1196,-0.1343,-0.06,33.48,34.57
1341,1010442627,-0.3799,-0.2256,-0.0864,-2.56,29.33,40.30
1342,1010447627,-0.3301,-0.3506,-0.0376,-4.39,24.45,44.45
1343,1010452630,-0.3066,-0.4624,-0.0083,-4.94,18.84,47.13
1344,1010457629,-0.2881,-0.5737,0.0107,-4.15,12.80,48.54
1345,1010462627,-0.2949,-0.6772,0.0259,-1.46,6.28,48.90
1346,1010467628,-0.3252,-0.7666,0.0356,2.87,-0.24,48.41
1347,1010472629,-0.3696,-0.8486,0.0381,8.96,-6.52,47.13
1348,1010477630,-0.4365,-0.9170,0.0356,15.67,-12.56,45.37
1349,1010482629,-0.4922,-0.9678,0.0264,22.38,-18.05,43.41
1350,1010487627,-0.5361,-1.0244,0.0151,28.23,-23.11,40.98
1351,1010492627,-0.6016,-1.0693,0.0005,32.44,-27.74,38.29
1352,1010497630,-0.6460,-1.1167,-0.0215,34.63,-31.71,35.43
1353,1010502629,-0.6885,-1.1509,-0.0435,35.30,-34.76,32.32
1354,1010507628,-0.6948,-1.1782,-0.0669,34.63,-37.01,28.84
1355,1010512629,-0.6968,-1.1919,-0.0889,32.20,-38.60,25.12
1356,1010517628,-0.6987,-1.2017,-0.1147,28.54,-39.45,21.34
1357,1010522629,-0.6958,-1.2207,-0.1475,23.84,-39.70,17.32
1358,1010527628,-0.6914,-1.2437,-0.1675,18.72,-39.51,13.23
1359,1010532629,-0.6562,-1.2666,-0.1860,14.09,-38.78,8.90
1360,1010537630,-0.6040,-1.2964,-0.2139,10.55,-37.93,4.21
1361,1010542629,-0.5557,-1.3252,-0.2495,8.54,-36.83,-0.85
1362,1010547628,-0.5132,-1.3457,-0.2744,8.78,-35.98,-6.34
1363,1010552629,-0.4766,-1.3594,-0.3042,10.37,-34.82,-12.01
1364,1010557627,-0.4360,-1.3589,-0.3306,12.32,-33.66,-18.17
1365,1010562629,-0.4048,-1.3452,-0.3530,13.41,-32.07,-24.51
1366,1010567935,-0.3989,-1.3218,-0.3833,12.99,-30.12,-30.91
1367,1010572630,-0.3911,-1.2881,-0.4321,10.67,-27.74,-37.01
1368,1010577627,-0.3960,-1.2515,-0.4648,7.50,-24.88,-42.50
1369,1010582628,-0.4189,-1.2017,-0.4932,4.51,-21.71,-47.20
1370,1010587629,-0.4404,-1.1621,-0.5088,2.20,-18.11,-51.40
1371,1010592627,-0.4385,-1.1177,-0.5137,0.49,-14.33,-55.12
1372,1010597627,-0.4277,-1.0747,-0.5127,-1.22,-10.30,-58.54
1373,1010602627,-0.4175,-1.0322,-0.5132,-3.54,-6.46,-61.71
1374,1010607670,-0.4194,-0.9961,-0.5063,-6.83,-2.56,-64.57
1375,1010612627,-0.4233,-0.9722,-0.4956,-11.04,0.73,-67.13
1376,1010617630,-0.4263,-0.9468,-0.4810,-14.70,3.23,-69.45
1377,1010622629,-0.4312,-0.9258,-0.4497,-16.59,5.43,-71.46
1378,1010627628,-0.4419,-0.9004,-0.4282,-16.34,7.13,-73.05
1379,1010632629,-0.4634,-0.8818,-0.4053,-14.76,8.23,-74.33
1380,1010637630,-0.4873,-0.8516,-0.3765,-12.26,9.09,-75.30
1381,1010642629,-0.5093,-0.8208,-0.3584,-9.27,9.51,-75.79
1382,1010647627,-0.5259,-0.7861,-0.3438,-6.16,9.94,-75.98
1383,1010652627,-0.5464,-0.7573,-0.3218,-3.60,10.00,-75.85
1384,1010657630,-0.5723,-0.7373,-0.2944,-2.13,10.12,-75.24
1385,1010662629,-0.5942,-0.7207,-0.2822,-1.65,9.94,-74.21
1386,1010667628,-0.5981,-0.7144,-0.2632,-1.65,9.45,-72.87
1387,1010672629,-0.5923,-0.7188,-0.2520,-1.65,8.72,-71.52
1388,1010677627,-0.5601,-0.7358,-0.2344,-1.22,7.80,-70.24
1389,1010682628,-0.5171,-0.7539,-0.2163,-0.12,6.46,-69.09
1390,1010687629,-0.4551,-0.7729,-0.1958,1.40,5.00,-68.60
1391,1010692628,-0.4067,-0.7949,-0.1709,2.68,3.54,-68.96
1392,1010697629,-0.3647,-0.8086,-0.1514,2.99,2.13,-69.70
1393,1010702628,-0.3188,-0.8169,-0.1528,1.77,0.61,-70.98
1394,1010707631,-0.2803,-0.8159,-0.1338,-0.30,-0.79,-72.56
1395,1010712627,-0.2690,-0.8169,-0.1357,-2.68,-2.38,-74.02
1396,1010717627,-0.2539,-0.8081,-0.1323,-4.39,-3.66,-75.61
1397,1010722628,-0.2417,-0.7949,-0.1333,-5.30,-4.82,-76.89
1398,1010727629,-0.2529,-0.7876,-0.1460,-5.24,-5.73,-77.68
1399,1010732628,-0.2510,-0.7695,-0.1641,-5.06,-6.46,-77.87
1400,1010737629,-0.2578,-0.7534,-0.1948,-4.57,-7.01,-77.26
1401,1010742627,-0.2808,-0.7363,-0.2109,-3.60,-7.38,-76.16
1402,1010747630,-0.3062,-0.7339,-0.2153,-1.83,-7.50,-74.82
1403,1010752629,-0.3335,-0.7368,-0.2305,0.12,-7.68,-73.35
1404,1010757627,-0.3662,-0.7363,-0.2407,1.46,-7.38,-71.89
1405,1010762630,-0.4014,-0.7451,-0.2495,2.20,-6.83,-70.49
1406,1010767629,-0.4346,-0.7568,-0.2510,2.56,-6.77,-69.39
1407,1010772629,-0.4629,-0.7710,-0.2583,2.87,-6.22,-68.48
1408,1010777628,-0.4712,-0.7930,-0.2603,3.48,-6.10,-67.56
1409,1010782629,-0.4736,-0.8179,-0.2656,3.66,-5.85,-67.32
1410,1010787628,-0.4712,-0.8408,-0.2568,3.60,-5.91,-67.50
1411,1010792629,-0.4634,-0.8701,-0.2427,3.11,-6.10,-68.29
1412,1010797628,-0.4395,-0.8970,-0.2231,2.56,-6.83,-69.88
1413,1010802629,-0.3896,-0.9160,-0.2095,2.13,-7.56,-72.20
1414,1010807628,-0.3506,-0.9463,-0.2070,1.89,-8.78,-74.94
1415,1010812629,-0.3164,-0.9668,-0.2144,2.56,-10.61,-77.68
1416,1010817628,-0.2900,-0.9771,-0.2192,4.63,-12.68,-80.55
1417,1010822629,-0.2759,-0.9873,-0.2349,8.29,-14.88,-83.23
1418,1010827627,-0.2661,-0.9873,-0.2500,13.17,-17.20,-85.91
1419,1010832628,-0.2588,-0.9878,-0.2681,18.35,-19.45,-88.54
1420,1010837627,-0.2622,-0.9834,-0.2817,22.87,-21.34,-91.10
1421,1010842627,-0.2778,-0.9824,-0.3018,25.85,-23.23,-93.66
1422,1010847627,-0.2900,-0.9746,-0.3140,26.71,-24.94,-96.22
1423,1010852627,-0.3115,-0.9746,-0.3218,25.67,-26.52,-98.96
1424,1010857627,-0.3413,-0.9712,-0.3281,22.44,-27.87,-101.77
1425,1010862628,-0.3643,-0.9751,-0.3359,17.93,-29.09,-104.70
1426,1010867924,-0.3936,-0.9839,-0.3350,13.05,-30.06,-107.87
1427,1010872629,-0.4219,-0.9946,-0.3325,8.78,-31.10,-111.22
1428,1010877627,-0.4473,-1.0054,-0.3076,6.04,-31.65,-114.88
1429,1010882627,-0.4702,-1.0195,-0.2959,4.82,-32.26,-118.90
1430,1010887627,-0.4634,-1.0474,-0.2798,4.82,-32.68,-123.29
1431,1010892627,-0.4414,-1.0522,-0.2729,5.61,-32.99,-127.93
1432,1010897627,-0.4131,-1.0454,-0.2754,7.07,-33.78,-132.87
1433,1010902628,-0.4019,-1.0479,-0.2710,8.90,-34.33,-137.87
1434,1010907627,-0.3926,-1.0522,-0.2803,10.98,-35.00,-142.62
1435,1010912627,-0.3784,-1.0435,-0.3076,13.17,-35.49,-146.89
1436,1010917629,-0.3599,-1.0308,-0.3364,16.04,-36.10,-150.49
1437,1010922630,-0.3315,-1.0137,-0.3608,19.63,-36.89,-153.60
1438,1010927629,-0.3096,-1.0059,-0.3770,23.78,-37.56,-156.40
1439,1010932628,-0.2988,-0.9863,-0.3999,27.99,-38.23,-159.02
1440,1010937629,-0.2935,-0.9746,-0.4092,31.95,-38.96,-161.77
1441,1010942745,-0.2964,-0.9565,-0.4170,35.43,-39.88,-164.45
1442,1010947629,-0.2983,-0.9365,-0.4170,37.62,-40.79,-167.32
1443,1010953076,-0.2935,-0.9204,-0.4097,37.87,-41.77,-170.85
1444,1010957630,-0.2900,-0.9077,-0.4053,36.40,-42.44,-173.54
1445,1010962628,-0.2837,-0.8945,-0.3901,32.80,-43.05,-177.32
1446,1010967629,-0.2710,-0.8745,-0.3770,28.17,-43.35,-181.52
1447,1010972630,-0.2515,-0.8564,-0.3682,23.29,-43.29,-185.98
1448,1010977629,-0.2324,-0.8364,-0.3652,19.39,-42.99,-190.49
1449,1010982628,-0.2134,-0.8184,-0.3716,16.65,-42.56,-194.70
1450,1010987629,-0.2061,-0.8003,-0.3818,15.43,-42.13,-198.48
1451,1010992628,-0.1826,-0.7803,-0.3882,15.91,-41.89,-201.95
1452,1010997629,-0.1514,-0.7676,-0.4033,18.11,-41.52,-205.00
1453,1011002628,-0.1172,-0.7563,-0.4185,22.93,-41.34,-207.80
1454,1011007629,-0.0840,-0.7451,-0.4346,30.12,-40.98,-210.24
1455,1011012628,-0.0586,-0.7212,-0.4541,38.96,-40.67,-212.13
1456,1011017629,-0.0459,-0.7012,-0.4688,47.93,-40.43,-213.96
1457,1011022628,-0.0264,-0.6831,-0.4653,55.55,-40.30,-215.73
1458,1011027629,-0.0093,-0.6602,-0.4487,60.79,-40.30,-217.44
1459,1011032628,-0.0283,-0.6382,-0.4282,62.93,-40.49,-219.33
1460,1011037629,-0.0488,-0.6147,-0.4248,62.01,-40.85,-221.22
1461,1011042627,-0.0771,-0.5908,-0.4199,58.11,-41.16,-222.80
1462,1011047630,-0.1011,-0.5713,-0.4165,52.93,-41.46,-224.21
1463,1011052629,-0.1001,-0.5483,-0.4219,47.32,-41.59,-225.24
1464,1011057629,-0.0923,-0.5220,-0.4204,43.05,-41.52,-226.04
1465,1011062628,-0.0889,-0.5015,-0.4326,40.24,-41.34,-226.89
1466,1011067629,-0.0703,-0.4854,-0.4355,39.57,-40.98,-227.80
1467,1011072628,-0.0391,-0.4648,-0.4561,41.04,-40.43,-228.60
1468,1011077629,-0.0117,-0.4312,-0.4678,44.33,-39.39,-229.51
1469,1011082628,0.0083,-0.4053,-0.4814,48.48,-38.35,-230.61
1470,1011087629,0.0142,-0.3901,-0.4819,52.80,-36.89,-231.77
1471,1011092628,0.0342,-0.3682,-0.4883,56.34,-35.61,-232.80
1472,1011097629,0.0791,-0.3682,-0.4946,59.09,-33.90,-233.72
1473,1011103018,0.1118,-0.3486,-0.5200,61.65,-32.20,-234.27
1474,1011107630,0.1284,-0.3359,-0.5317,63.35,-30.91,-234.27
1475,1011112628,0.1338,-0.3257,-0.5405,65.43,-29.45,-233.90
1476,1011117630,0.1299,-0.3203,-0.5400,67.68,-27.99,-233.23
1477,1011122630,0.1123,-0.3140,-0.5400,69.70,-26.71,-232.44
1478,1011127629,0.1021,-0.3154,-0.5410,71.89,-25.73,-231.52
1479,1011132628,0.0840,-0.3135,-0.5308,74.09,-24.63,-230.55
1480,1011137629,0.0723,-0.2954,-0.5259,76.34,-23.66,-229.76
1481,1011142628,0.0947,-0.2744,-0.5234,78.48,-22.93,-229.39
1482,1011147629,0.1167,-0.2534,-0.5093,79.51,-22.01,-229.57
1483,1011152862,0.1470,-0.2383,-0.5005,78.96,-20.98,-230.30
1484,1011157629,0.1763,-0.2246,-0.4893,76.28,-19.70,-231.59
1485,1011162628,0.2139,-0.2100,-0.4819,71.95,-18.54,-233.48
1486,1011167629,0.2515,-0.1963,-0.4775,67.01,-16.83,-235.61
1487,1011172717,0.2847,-0.1768,-0.4595,62.38,-15.12,-238.05
1488,1011177629,0.3110,-0.1719,-0.4390,58.96,-12.93,-240.85
1489,1011182857,0.3052,-0.1621,-0.4258,57.01,-10.61,-243.54
1490,1011187629,0.2993,-0.1572,-0.4185,56.34,-8.41,-245.85
1491,1011192628,0.2812,-0.1567,-0.4087,56.71,-6.28,-247.74
1492,1011197629,0.2534,-0.1543,-0.3921,57.93,-4.21,-249.21
1493,1011202630,0.2393,-0.1475,-0.3818,60.12,-2.62,-250.06
1494,1011207628,0.2163,-0.1377,-0.3667,63.23,-1.52,-250.43
1495,1011212629,0.1909,-0.1255,-0.3496,67.56,-0.67,-250.61
1496,1011217627,0.1660,-0.1099,-0.3472,72.56,-0.43,-250.67
1497,1011222628,0.1587,-0.0854,-0.3418,78.11,-0.61,-250.43
1498,1011227629,0.1562,-0.0562,-0.3525,83.54,-1.40,-250.43
1499,1011232628,0.1802,-0.0239,-0.3496,87.87,-2.26,-250.67
1500,1011237629,0.2183,0.0063,-0.3438,90.18,-3.11,-251.40
1501,1011242628,0.2568,0.0400,-0.3535,90.30,-3.96,-252.56
1502,1011247629,0.2964,0.0679,-0.3574,88.90,-4.57,-253.96
1503,1011252627,0.3564,0.0991,-0.3716,86.28,-5.18,-255.55
1504,1011257630,0.4092,0.1313,-0.3916,83.29,-5.30,-257.20
1505,1011262628,0.4609,0.1660,-0.4009,80.37,-5.12,-258.84
1506,1011267629,0.4971,0.1855,-0.4199,78.17,-4.70,-260.37
1507,1011272628,0.5088,0.2129,-0.4238,76.89,-3.66,-261.77
1508,1011277629,0.5112,0.2568,-0.4204,76.89,-2.44,-263.05
1509,1011282628,0.5049,0.2798,-0.4219,78.35,-0.79,-263.90
1510,1011287629,0.5020,0.2988,-0.4160,81.04,1.28,-264.57
1511,1011292628,0.4722,0.3188,-0.4263,84.82,3.17,-264.82
1512,1011297629,0.4365,0.3384,-0.3853,88.96,5.18,-264.70
1513,1011302628,0.4019,0.3574,-0.3789,92.80,7.13,-264.39
1514,1011307629,0.3711,0.3794,-0.3877,95.91,8.78,-263.84
1515,1011312628,0.3311,0.4282,-0.3857,97.87,10.37,-263.05
1516,1011317629,0.2930,0.4775,-0.3853,98.17,11.52,-262.38
1517,1011322628,0.3076,0.5059,-0.3696,96.40,12.62,-261.77
1518,1011327629,0.3350,0.5327,-0.3618,92.07,13.90,-260.91
1519,1011332628,0.3442,0.5649,-0.3667,85.79,14.88,-259.76
1520,1011337629,0.3574,0.5972,-0.3813,78.41,15.79,-258.05
1521,1011342628,0.4019,0.6279,-0.3799,70.79,16.83,-256.10
1522,1011347629,0.4507,0.6558,-0.3823,63.90,17.93,-253.84
1523,1011352628,0.5190,0.6816,-0.3628,59.09,19.45,-251.46
1524,1011357629,0.6006,0.7168,-0.3477,57.01,21.22,-249.15
1525,1011362627,0.6821,0.7461,-0.3838,57.56,22.87,-246.95
1526,1011367630,0.7065,0.7769,-0.3662,60.79,23.90,-244.94
1527,1011372976,0.7671,0.8071,-0.3379,66.95,24.94,-242.99
1528,1011377629,0.7891,0.8433,-0.3154,72.01,25.61,-242.13
1529,1011382630,0.7949,0.8965,-0.2900,78.48,26.65,-241.52
1530,1011387629,0.8345,0.9131,-0.3013,84.94,27.26,-241.22
1531,1011392631,0.8291,0.9468,-0.2861,90.18,27.99,-241.22
1532,1011397628,0.8145,0.9756,-0.2896,93.54,28.60,-241.52
1533,1011402629,0.7510,0.9912,-0.2749,94.57,29.57,-241.65
1534,1011407627,0.8203,1.0098,-0.3247,92.93,30.24,-241.65
1535,1011412629,0.7739,1.0264,-0.2944,88.72,31.16,-241.40
1536,1011417628,0.6494,1.0684,-0.3232,82.80,32.62,-240.98
1537,1011422631,0.6797,1.0181,-0.3794,76.16,34.15,-239.63
1538,1011427627,0.6221,1.0229,-0.3779,68.84,36.83,-237.26
1539,1011432627,0.6235,1.0083,-0.3604,61.65,40.55,-234.21
1540,1011437627,0.7114,0.9673,-0.4595,54.76,44.70,-229.94
1541,1011442629,0.7568,0.9648,-0.4785,49.82,48.84,-224.27
1542,1011447629,0.7734,0.9712,-0.4546,47.56,53.60,-217.68
1543,1011452628,0.7725,1.0029,-0.4375,48.78,58.60,-210.79
1544,1011457627,0.7710,1.0308,-0.4033,52.93,63.48,-204.33
1545,1011462630,0.7686,1.0410,-0.3398,58.60,68.48,-199.02
1546,1011467629,0.7515,1.0503,-0.2534,64.33,73.05,-194.63
1547,1011472669,0.7588,1.0669,-0.2090,69.21,77.38,-191.40
1548,1011477630,0.7925,1.0869,-0.1680,72.62,80.79,-189.33
1549,1011482629,0.8291,1.1108,-0.1206,74.57,83.23,-188.29
1550,1011487628,0.8623,1.1450,-0.0815,75.12,85.55,-188.54
1551,1011492631,0.8848,1.0913,-0.0513,74.21,85.73,-189.39
1552,1011497627,0.8823,1.0322,-0.0410,72.26,85.37,-189.94
1553,1011502631,0.8726,1.0259,-0.0137,70.43,83.96,-189.82
1554,1011507628,0.8774,1.0190,-0.0059,69.21,81.34,-189.21
1555,1011512629,0.8540,1.0015,-0.0161,69.09,78.72,-187.87
1556,1011517627,0.8135,0.9854,-0.0205,69.76,76.22,-185.37
1557,1011522629,0.7715,0.9961,-0.0371,71.46,74.45,-181.83
1558,1011527628,0.7192,1.0127,-0.0723,73.90,73.29,-177.50
1559,1011532629,0.6572,1.0366,-0.1060,76.95,73.29,-172.50
1560,1011537627,0.6045,1.0630,-0.1357,80.12,74.15,-166.89
1561,1011542629,0.5732,1.0757,-0.1675,83.60,75.98,-160.85
1562,1011547628,0.5503,1.0908,-0.2021,86.59,78.17,-154.39
1563,1011552793,0.5508,1.1304,-0.2480,88.60,80.67,-146.59
1564,1011557627,0.5620,1.1602,-0.2368,87.80,82.44,-142.13
1565,1011562631,0.5928,1.1504,-0.2461,83.84,84.51,-137.56
1566,1011567628,0.6343,1.1411,-0.2393,76.46,85.73,-133.66
1567,1011572629,0.6611,1.1138,-0.2124,66.59,86.28,-130.61
1568,1011577627,0.6572,1.0908,-0.1860,55.79,85.85,-128.11
1569,1011582741,0.6436,1.0625,-0.1655,45.49,86.34,-125.79
1570,1011587629,0.6367,1.0518,-0.1494,37.20,87.44,-123.84
1571,1011592629,0.6318,1.0508,-0.1274,31.77,88.48,-122.07
1572,1011597629,0.6348,1.0459,-0.1147,29.94,89.82,-120.43
1573,1011602628,0.6406,1.0371,-0.1006,32.07,91.59,-118.78
1574,1011607629,0.6523,1.0435,-0.0879,38.05,94.09,-117.07
1575,1011612629,0.6772,1.0737,-0.1011,47.32,97.32,-115.06
1576,1011617629,0.7109,1.1108,-0.1309,59.02,100.98,-112.99
1577,1011622628,0.7451,1.1465,-0.1646,71.46,104.63,-110.67
1578,1011627629,0.7861,1.1763,-0.1841,82.68,108.29,-108.60
1579,1011632629,0.8501,1.1929,-0.1772,90.43,111.52,-106.77
1580,1011637629,0.9146,1.1890,-0.1494,92.99,114.15,-105.79
1581,1011642628,0.9707,1.1709,-0.0957,89.63,116.22,-105.67
1582,1011647629,1.0020,1.1592,-0.0410,81.46,117.56,-105.98
1583,1011652629,0.9927,1.1606,-0.0034,69.70,118.78,-106.65
1584,1011657629,1.0073,1.1743,0.0308,56.59,119.27,-107.50
1585,1011662630,1.0356,1.1851,0.0537,43.60,119.45,-108.17
1586,1011667629,1.0522,1.1982,0.1001,32.50,119.09,-108.66
1587,1011672629,1.0542,1.2021,0.1455,24.27,118.11,-108.84
1588,1011677629,1.0586,1.2056,0.2031,19.82,116.34,-108.96
1589,1011682630,1.0513,1.2153,0.2588,19.02,113.90,-108.66
1590,1011687629,1.0430,1.2310,0.3193,22.20,110.98,-108.17
1591,1011692629,1.0220,1.2466,0.3730,28.60,107.26,-107.44
1592,1011697629,0.9756,1.2764,0.4062,37.80,103.48,-106.22
1593,1011702627,0.9316,1.3081,0.4600,48.72,99.76,-104.21
1594,1011707629,0.8975,1.3452,0.4951,59.88,95.79,-101.77
1595,1011712627,0.8579,1.3857,0.5059,69.70,92.26,-98.60
1596,1011717761,0.8184,1.4336,0.5083,78.54,88.05,-94.02
1597,1011722631,0.7925,1.4658,0.5005,81.40,85.18,-90.55
1598,1011727628,0.7573,1.5093,0.5112,81.28,82.50,-85.67
1599,1011732629,0.7285,1.5386,0.5049,76.83,79.39,-80.49
1600,1011737627,0.7080,1.5596,0.5098,68.90,76.16,-74.76
1601,1011742629,0.6865,1.5806,0.5278,58.54,73.05,-68.84
1602,1011747628,0.6602,1.5776,0.5557,46.71,69.76,-62.32
1603,1011752629,0.6416,1.5825,0.5923,35.00,66.46,-55.55
1604,1011757628,0.6309,1.5762,0.6343,22.20,62.13,-47.13
1605,1011762631,0.6147,1.5693,0.6543,14.94,59.02,-41.16
1606,1011767628,0.5967,1.5586,0.6768,7.93,54.94,-33.72
1607,1011773108,0.5903,1.5366,0.6997,2.62,49.33,-24.70
1608,1011777629,0.5913,1.5166,0.7129,0.98,45.49,-18.78
1609,1011782627,0.5781,1.4819,0.7285,0.98,40.37,-11.46
1610,1011787631,0.5806,1.4512,0.7446,2.87,34.88,-4.45
1611,1011792629,0.5811,1.4141,0.7617,6.28,29.33,2.07
1612,1011797628,0.5854,1.3730,0.7686,10.49,23.72,7.99
1613,1011802631,0.5933,1.3296,0.7617,14.70,18.23,13.60
1614,1011807627,0.5869,1.2949,0.7515,18.23,12.68,18.60
1615,1011812678,0.5952,1.2607,0.7275,20.30,7.56,23.05
1616,1011817630,0.5830,1.2241,0.7119,20.67,2.50,26.89
1617,1011822822,0.5732,1.1870,0.6919,18.78,-2.99,30.85
1618,1011827628,0.5688,1.1665,0.6704,16.59,-6.34,33.11
1619,1011832627,0.5620,1.1387,0.6519,12.93,-10.37,35.37
1620,1011837629,0.5649,1.1147,0.6240,8.66,-14.02,37.26
1621,1011842627,0.5718,1.0903,0.5981,4.15,-17.32,38.66
1622,1011847629,0.5688,1.0620,0.5703,-0.06,-20.43,40.00
1623,1011853028,0.5654,1.0332,0.5527,-4.09,-23.84,41.04
1624,1011857629,0.5664,1.0132,0.5254,-6.34,-25.85,41.28
1625,1011862904,0.5698,0.9927,0.4985,-8.66,-28.48,41.52
1626,1011867630,0.5698,0.9829,0.4683,-9.76,-30.00,41.46
1627,1011872628,0.5630,0.9668,0.4473,-10.79,-31.95,41.34
1628,1011877629,0.5669,0.9541,0.4141,-11.16,-33.72,40.91
1629,1011882627,0.5635,0.9380,0.3979,-10.98,-35.06,40.55
1630,1011887629,0.5571,0.9321,0.3745,-10.55,-36.46,40.00
1631,1011892629,0.5557,0.9233,0.3491,-9.76,-37.44,39.39
1632,1011897627,0.5513,0.9189,0.3188,-8.78,-38.48,38.66
1633,1011902629,0.5518,0.9170,0.2920,-7.87,-39.21,37.93
1634,1011907628,0.5435,0.9116,0.2725,-7.20,-39.82,37.07
1635,1011912629,0.5312,0.9102,0.2510,-7.01,-40.12,36.22
1636,1011917627,0.5156,0.9062,0.2378,-7.50,-40.24,35.49
1637,1011922629,0.5103,0.9160,0.2134,-8.66,-40.37,34.88
1638,1011927629,0.5059,0.9219,0.2051,-10.00,-40.43,34.27
1639,1011932629,0.4878,0.9297,0.1914,-11.40,-40.30,33.96
1640,1011937627,0.4810,0.9390,0.1753,-12.68,-40.00,33.90
1641,1011942629,0.4736,0.9502,0.1602,-14.33,-39.57,34.09
1642,1011947628,0.4746,0.9561,0.1509,-16.34,-39.39,34.51
1643,1011952629,0.4697,0.9619,0.1289,-18.23,-39.02,35.12
1644,1011957627,0.4658,0.9673,0.1187,-19.63,-38.35,35.91
1645,1011962629,0.4556,0.9746,0.0981,-20.67,-37.50,37.01
1646,1011967629,0.4570,0.9824,0.0791,-20.73,-36.89,37.93
1647,1011973139,0.4492,0.9888,0.0630,-20.43,-36.04,39.27
1648,1011977629,0.4487,0.9824,0.0508,-19.88,-35.12,40.43
1649,1011982627,0.4502,0.9839,0.0396,-19.09,-34.15,41.77
1650,1011987629,0.4478,0.9766,0.0327,-17.99,-32.80,43.54
1651,1011993011,0.4473,0.9658,0.0200,-17.01,-31.83,44.88
1652,1011997629,0.4434,0.9575,0.0190,-16.28,-30.85,45.91
1653,1012002629,0.4434,0.9390,0.0112,-15.49,-29.33,47.13
1654,1012007629,0.4443,0.9194,0.0029,-15.12,-28.35,47.74
1655,1012012628,0.4517,0.9097,0.0103,-14.94,-26.83,48.41
1656,1012017629,0.4473,0.8936,0.0112,-14.94,-25.73,48.66
1657,1012022818,0.4502,0.8701,0.0112,-15.24,-24.63,48.78
1658,1012027630,0.4536,0.8599,0.0132,-15.67,-23.72,48.72
1659,1012032629,0.4595,0.8452,0.0273,-15.67,-22.74,48.35
1660,1012037629,0.4717,0.8403,0.0342,-14.94,-22.07,47.74
1661,1012042630,0.4736,0.8291,0.0435,-13.72,-21.65,47.20
1662,1012047629,0.4849,0.8252,0.0415,-12.26,-21.22,46.34
1663,1012052629,0.4937,0.8188,0.0430,-11.10,-20.91,45.55
1664,1012057629,0.5005,0.8149,0.0474,-10.43,-20.55,44.51
1665,1012062630,0.5068,0.8125,0.0439,-10.30,-20.37,43.66
1666,1012067629,0.5098,0.8125,0.0361,-10.61,-20.18,42.62
1667,1012072629,0.5132,0.8101,0.0298,-11.04,-19.88,41.59
1668,1012077629,0.5127,0.8047,0.0254,-11.34,-19.39,40.30
1669,1012082628,0.5171,0.8003,0.0225,-11.71,-18.84,39.09
1670,1012087629,0.5166,0.8032,0.0225,-12.13,-18.29,37.68
1671,1012092630,0.5171,0.7959,0.0098,-12.68,-17.62,36.28
1672,1012097629,0.5156,0.8027,0.0059,-13.23,-16.77,35.06
1673,1012102628,0.5098,0.7988,0.0049,-13.78,-15.85,33.84
1674,1012107629,0.5093,0.7964,0.0103,-14.21,-15.06,32.62
1675,1012112813,0.5049,0.7930,0.0146,-14.45,-14.02,31.46
1676,1012117629,0.5005,0.7939,0.0161,-14.70,-13.05,30.30
1677,1012122630,0.5015,0.7910,0.0225,-14.88,-12.01,29.02
1678,1012127629,0.5020,0.7925,0.0264,-15.06,-11.22,27.68
1679,1012132628,0.5044,0.7964,0.0308,-14.94,-10.18,26.52
1680,1012137630,0.5083,0.7964,0.0420,-14.88,-9.51,25.49
1681,1012142629,0.5107,0.8027,0.0605,-14.70,-8.84,24.70
1682,1012147629,0.5176,0.8071,0.0688,-14.45,-8.66,23.72
1683,1012152628,0.5210,0.8149,0.0747,-13.96,-8.29,23.11
1684,1012157629,0.5259,0.8154,0.0850,-13.66,-8.05,22.68
1685,1012162629,0.5347,0.8247,0.0962,-13.60,-7.99,22.26
1686,1012167629,0.5347,0.8232,0.0996,-14.02,-8.05,21.89
1687,1012172630,0.5317,0.8242,0.0938,-14.57,-8.23,21.71
1688,1012177629,0.5347,0.8296,0.0996,-15.00,-8.29,21.65
1689,1012182629,0.5371,0.8252,0.1050,-15.12,-8.41,21.65
1690,1012187629,0.5347,0.8198,0.0967,-14.70,-8.48,21.71
1691,1012192628,0.5342,0.8179,0.0898,-13.72,-8.41,21.89
1692,1012197631,0.5356,0.8188,0.0815,-12.50,-8.35,22.13
1693,1012202630,0.5337,0.8159,0.0889,-11.10,-8.17,22.38
1694,1012207629,0.5347,0.8086,0.0874,-9.88,-7.80,22.56
1695,1012212631,0.5298,0.8125,0.0801,-8.96,-7.38,22.93
1696,1012217629,0.5298,0.8091,0.0801,-8.60,-6.95,23.11
1697,1012222659,0.5273,0.8062,0.0781,-8.48,-6.59,23.41
1698,1012227629,0.5259,0.8027,0.0874,-8.96,-6.16,23.48
1699,1012232628,0.5303,0.7949,0.0894,-9.39,-5.85,23.66
1700,1012237629,0.5342,0.7866,0.1016,-9.76,-5.61,23.66
1701,1012242629,0.5410,0.7847,0.0991,-10.06,-5.55,23.90
1702,1012247629,0.5464,0.7769,0.1079,-10.12,-5.55,23.90
1703,1012252628,0.5552,0.7705,0.1152,-10.12,-5.67,23.90
1704,1012257629,0.5659,0.7568,0.1226,-10.30,-5.73,23.78
1705,1012262629,0.5728,0.7471,0.1123,-10.67,-5.98,23.48
1706,1012267629,0.5850,0.7378,0.1084,-11.34,-6.34,23.11
1707,1012272628,0.5947,0.7295,0.1089,-11.89,-6.65,22.50
1708,1012277630,0.6001,0.7246,0.0986,-12.07,-6.89,22.01
1709,1012282629,0.6006,0.7207,0.0967,-11.83,-7.20,21.46
1710,1012287629,0.6050,0.7119,0.0835,-10.98,-7.32,20.79
1711,1012292627,0.6045,0.7100,0.0786,-9.63,-7.50,20.30
1712,1012297630,0.6030,0.7046,0.0669,-7.99,-7.44,19.51
1713,1012302629,0.6064,0.7046,0.0571,-6.52,-7.13,18.90
1714,1012307629,0.6050,0.7100,0.0547,-5.43,-6.77,18.17
1715,1012312628,0.5991,0.7124,0.0469,-4.88,-6.22,17.32
1716,1012317629,0.5942,0.7192,0.0479,-4.94,-5.73,16.71
1717,1012322629,0.5928,0.7183,0.0464,-5.55,-5.06,15.98
1718,1012327629,0.5908,0.7158,0.0508,-6.34,-4.45,15.18
1719,1012332628,0.5933,0.7183,0.0552,-7.38,-4.02,14.57
1720,1012337629,0.5923,0.7222,0.0571,-8.17,-3.29,13.78
1721,1012342630,0.5903,0.7217,0.0620,-8.41,-2.80,13.29
1722,1012347629,0.6006,0.7192,0.0640,-8.05,-2.44,12.74
1723,1012352628,0.6045,0.7178,0.0664,-7.44,-2.20,12.07
1724,1012357629,0.6055,0.7202,0.0703,-6.89,-1.95,11.46
1725,1012362629,0.6128,0.7163,0.0811,-6.34,-1.77,10.85
1726,1012367629,0.6167,0.7173,0.0757,-6.04,-1.65,10.24
1727,1012372628,0.6216,0.7207,0.0752,-5.79,-1.71,9.63
1728,1012377630,0.6235,0.7197,0.0791,-5.55,-1.65,9.09
1729,1012382629,0.6255,0.7173,0.0854,-5.43,-1.71,8.60
1730,1012387629,0.6191,0.7168,0.0806,-5.30,-1.77,7.87
1731,1012393094,0.6191,0.7197,0.0811,-4.94,-1.89,7.32
1732,1012397677,0.6187,0.7139,0.0850,-4.02,-1.95,6.71
1733,1012402629,0.6147,0.7168,0.0835,-3.05,-2.20,6.22
1734,1012407629,0.6104,0.7144,0.0820,-1.83,-2.26,5.73
1735,1012412629,0.6113,0.7261,0.0864,-0.55,-2.38,5.18
