# skilleye imu stream v1
# device=xiao_esp32c6 imu=mpu6050 addr=0x68
# rate_hz=200 accel_range_g=16 gyro_range_dps=2000 dlpf_hz=94
# units: accel in g, gyro in deg/s, t_us in microseconds since boot (monotonic)
# no shared clock with the camera -- tap the racket once before each take
# so both recordings share a spike to align on
seq,t_us,ax,ay,az,gx,gy,gz
0,1042242629,0.5244,-0.6763,0.4956,32.80,10.98,17.99
1,1042247631,0.5156,-0.6929,0.4062,31.46,10.12,17.38
2,1042252628,0.4907,-0.7207,0.4609,30.00,8.90,16.71
3,1042257629,0.4878,-0.7329,0.5400,28.05,8.48,15.91
4,1042262629,0.4932,-0.7363,0.4775,26.16,7.80,15.12
5,1042267629,0.5098,-0.7305,0.4712,24.76,7.01,14.21
6,1042272628,0.5176,-0.7251,0.5220,23.90,6.46,13.48
7,1042277629,0.5347,-0.7280,0.4951,23.72,5.79,12.87
8,1042282629,0.5518,-0.7422,0.4771,23.96,5.12,12.38
9,1042287629,0.5767,-0.7397,0.5093,24.33,4.63,12.13
10,1042292628,0.5830,-0.7407,0.5117,24.39,4.21,11.95
11,1042297629,0.5879,-0.7417,0.5015,24.15,3.66,11.83
12,1042302627,0.5952,-0.7407,0.5166,23.54,3.17,11.95
13,1042307627,0.6089,-0.7461,0.5122,22.93,2.93,12.07
14,1042312629,0.6074,-0.7480,0.4985,22.44,2.44,12.13
15,1042317629,0.6099,-0.7461,0.5068,22.07,2.07,12.32
16,1042322629,0.6323,-0.7476,0.5127,22.13,1.65,12.26
17,1042327629,0.6411,-0.7500,0.5039,22.38,1.22,12.38
18,1042332630,0.6494,-0.7529,0.4995,22.62,0.79,12.44
19,1042337627,0.6553,-0.7588,0.4990,22.68,0.49,12.50
20,1042342629,0.6504,-0.7627,0.4980,22.20,-0.06,12.62
21,1042347631,0.6392,-0.7681,0.5000,21.04,-0.49,12.44
22,1042352628,0.6221,-0.7744,0.5020,19.02,-0.91,12.38
23,1042357629,0.6147,-0.7837,0.5083,16.28,-1.34,12.20
24,1042362629,0.6079,-0.7856,0.5063,13.66,-1.77,11.89
25,1042367629,0.6060,-0.7881,0.5059,11.40,-2.07,11.40
26,1042372628,0.6113,-0.7969,0.5112,9.76,-2.50,10.98
27,1042378010,0.6123,-0.7974,0.5132,9.33,-2.93,10.61
28,1042382630,0.6172,-0.7949,0.5146,9.70,-3.41,10.30
29,1042387629,0.6162,-0.7959,0.5112,10.55,-3.90,9.82
30,1042392629,0.6167,-0.7900,0.5137,11.77,-4.39,9.57
31,1042397987,0.6138,-0.7822,0.5024,12.80,-4.88,9.39
32,1042402630,0.6211,-0.7852,0.5054,13.48,-5.30,9.15
33,1042407629,0.6260,-0.7837,0.5015,13.60,-5.67,9.27
34,1042412629,0.6328,-0.7871,0.5000,13.17,-5.98,9.45
35,1042417628,0.6382,-0.7881,0.4985,12.20,-6.46,9.63
36,1042422629,0.6479,-0.7915,0.4946,10.98,-6.52,9.88
37,1042427629,0.6641,-0.7998,0.4893,9.76,-6.71,10.06
38,1042432629,0.6689,-0.8022,0.4854,8.29,-6.71,10.49
39,1042437627,0.6777,-0.8086,0.4819,7.20,-6.83,10.79
40,1042442629,0.6909,-0.8062,0.4819,6.22,-6.77,11.28
41,1042447630,0.6943,-0.8091,0.4775,5.49,-6.71,11.59
42,1042452629,0.7031,-0.7993,0.4668,5.12,-6.40,11.89
43,1042457627,0.7012,-0.7915,0.4668,5.30,-6.22,12.26
44,1042462629,0.6938,-0.7896,0.4604,5.67,-5.98,12.62
45,1042467629,0.6826,-0.7822,0.4517,6.34,-5.73,13.05
46,1042472629,0.6753,-0.7749,0.4409,7.13,-5.43,13.23
47,1042477628,0.6631,-0.7642,0.4370,7.62,-4.94,13.54
48,1042482627,0.6396,-0.7622,0.4336,7.50,-4.76,13.60
49,1042487628,0.6177,-0.7539,0.4272,6.65,-4.45,13.60
50,1042492630,0.5952,-0.7505,0.4229,5.30,-4.15,13.29
51,1042497627,0.5820,-0.7397,0.4219,3.41,-3.90,12.87
52,1042502627,0.5718,-0.7314,0.4048,1.22,-3.54,12.38
53,1042507629,0.5596,-0.7246,0.3970,-1.22,-3.48,11.77
54,1042512629,0.5508,-0.7231,0.3936,-4.09,-3.48,11.16
55,1042517628,0.5376,-0.7114,0.3887,-7.07,-3.41,10.61
56,1042522629,0.5239,-0.7061,0.3823,-9.94,-3.17,10.00
57,1042527628,0.5190,-0.6934,0.3774,-12.44,-3.11,9.57
58,1042532628,0.5249,-0.6792,0.3740,-13.96,-3.17,9.15
59,1042537627,0.5400,-0.6704,0.3696,-14.21,-3.17,8.90
60,1042542627,0.5381,-0.6660,0.3638,-13.23,-2.99,8.90
61,1042547627,0.5361,-0.6582,0.3564,-11.16,-2.99,8.90
62,1042552627,0.5244,-0.6567,0.3545,-8.17,-2.74,9.02
63,1042558413,0.5166,-0.6538,0.3555,-4.09,-2.26,9.27
64,1042562629,0.5210,-0.6455,0.3521,-0.91,-2.01,9.51
65,1042567627,0.5298,-0.6401,0.3486,3.11,-1.59,9.70
66,1042572629,0.5332,-0.6406,0.3462,7.13,-1.10,10.12
67,1042577631,0.5386,-0.6362,0.3438,10.79,-0.49,10.61
68,1042582627,0.5400,-0.6382,0.3501,13.78,0.00,11.10
69,1042587627,0.5474,-0.6382,0.3433,15.98,0.55,11.65
70,1042592629,0.5537,-0.6431,0.3452,17.20,1.16,12.50
71,1042597629,0.5571,-0.6440,0.3442,17.32,1.71,13.17
72,1042602627,0.5566,-0.6460,0.3438,16.46,2.20,14.02
73,1042607627,0.5518,-0.6582,0.3516,14.27,2.44,14.63
74,1042612629,0.5596,-0.6650,0.3530,10.98,2.62,15.18
75,1042617629,0.5547,-0.6763,0.3584,6.77,2.68,15.79
76,1042622627,0.5513,-0.6865,0.3647,1.89,2.99,16.34
77,1042627627,0.5537,-0.6973,0.3701,-3.48,3.05,16.83
78,1042632627,0.5513,-0.7109,0.3804,-8.60,3.23,17.13
79,1042637629,0.5464,-0.7173,0.3828,-12.99,3.29,17.56
80,1042642629,0.5469,-0.7217,0.3872,-16.16,3.35,18.05
81,1042647629,0.5493,-0.7305,0.3877,-17.68,3.41,18.41
82,1042652629,0.5557,-0.7368,0.3960,-17.56,3.60,19.02
83,1042657629,0.5640,-0.7393,0.3940,-15.79,3.78,19.57
84,1042662628,0.5762,-0.7476,0.3979,-12.56,3.96,20.18
85,1042667629,0.5825,-0.7612,0.3970,-8.17,4.27,20.98
86,1042672631,0.5747,-0.7749,0.3945,-3.29,4.63,21.65
87,1042677628,0.5791,-0.7852,0.3999,1.65,4.70,22.26
88,1042682627,0.5859,-0.8062,0.3994,5.91,5.06,22.62
89,1042687627,0.5767,-0.8179,0.4062,8.60,5.18,22.80
90,1042692629,0.5669,-0.8291,0.4092,9.94,5.37,22.74
91,1042697628,0.5552,-0.8408,0.4126,9.39,5.24,22.44
92,1042702627,0.5537,-0.8477,0.4185,7.44,5.18,21.89
93,1042707631,0.5513,-0.8545,0.4155,4.27,5.12,21.28
94,1042712628,0.5532,-0.8574,0.4209,0.43,5.12,20.55
95,1042717627,0.5586,-0.8672,0.4155,-3.78,4.94,19.82
96,1042722627,0.5586,-0.8667,0.4165,-8.23,4.82,19.02
97,1042727627,0.5518,-0.8730,0.4165,-12.62,4.76,18.23
98,1042732627,0.5493,-0.8726,0.4224,-16.83,4.51,17.20
99,1042737627,0.5522,-0.8701,0.4224,-20.61,4.45,16.34
100,1042742627,0.5562,-0.8730,0.4229,-23.78,4.63,15.30
101,1042747627,0.5532,-0.8774,0.4258,-25.91,4.51,14.21
102,1042752629,0.5518,-0.8823,0.4229,-27.01,4.63,13.23
103,1042757631,0.5542,-0.8813,0.4170,-27.01,4.82,12.20
104,1042762628,0.5518,-0.8887,0.4111,-26.10,5.06,11.28
105,1042767629,0.5508,-0.8848,0.4092,-24.88,5.43,10.37
106,1042772627,0.5503,-0.8960,0.4150,-22.80,5.79,9.51
107,1042777629,0.5503,-0.9023,0.4082,-20.61,6.22,8.72
108,1042782628,0.5493,-0.9180,0.4067,-18.35,6.89,7.87
109,1042787629,0.5493,-0.9263,0.4009,-16.04,7.44,7.32
110,1042792629,0.5483,-0.9258,0.4014,-14.09,7.93,6.65
111,1042797627,0.5527,-0.9272,0.4087,-12.38,8.48,6.04
112,1042802629,0.5513,-0.9331,0.3989,-11.16,8.96,5.49
113,1042807629,0.5547,-0.9375,0.3965,-10.30,9.57,5.00
114,1042812687,0.5562,-0.9438,0.3994,-10.00,9.94,4.63
115,1042817629,0.5615,-0.9502,0.3975,-10.37,10.49,4.27
116,1042822629,0.5688,-0.9580,0.3975,-11.16,10.85,3.78
117,1042827627,0.5708,-0.9629,0.3911,-12.87,11.59,3.54
118,1042832701,0.5669,-0.9668,0.4009,-15.12,12.07,3.11
119,1042837629,0.5757,-0.9727,0.3989,-17.80,12.62,2.56
120,1042842629,0.5796,-0.9795,0.3926,-20.61,13.54,2.01
121,1042847627,0.5806,-0.9824,0.3906,-23.35,14.09,1.46
122,1042853214,0.5835,-0.9907,0.3833,-26.46,15.00,0.73
123,1042857629,0.5811,-0.9888,0.3784,-28.17,15.67,0.24
124,1042862631,0.5898,-0.9956,0.3784,-30.00,16.46,-0.37
125,1042867629,0.5884,-0.9937,0.3662,-31.52,17.26,-1.16
126,1042872628,0.5854,-1.0039,0.3716,-32.56,18.23,-2.01
127,1042877629,0.5815,-1.0176,0.3657,-32.87,19.21,-2.93
128,1042882628,0.5640,-1.0327,0.3657,-32.32,20.00,-4.02
129,1042887684,0.5542,-1.0498,0.3604,-30.61,20.55,-5.12
130,1042892629,0.5469,-1.0669,0.3608,-28.29,21.28,-6.34
131,1042897629,0.5430,-1.0918,0.3521,-25.49,21.65,-7.74
132,1042902627,0.5332,-1.1050,0.3569,-22.80,22.07,-9.21
133,1042907629,0.5190,-1.1108,0.3560,-20.79,22.20,-11.10
134,1042912628,0.5137,-1.1172,0.3564,-19.57,22.38,-12.99
135,1042917629,0.5122,-1.1182,0.3633,-19.45,22.44,-15.06
136,1042922632,0.5103,-1.1284,0.3560,-20.43,22.56,-17.07
137,1042927627,0.4990,-1.1309,0.3521,-22.32,22.44,-19.27
138,1042932630,0.4834,-1.1333,0.3545,-25.12,22.38,-21.65
139,1042937629,0.4761,-1.1304,0.3477,-28.90,22.44,-24.02
140,1042942627,0.4727,-1.1216,0.3540,-33.29,22.44,-26.46
141,1042947627,0.4663,-1.1216,0.3491,-37.80,22.50,-29.02
142,1042952627,0.4600,-1.1191,0.3447,-42.32,22.50,-31.46
143,1042957627,0.4521,-1.1050,0.3384,-46.34,22.62,-33.72
144,1042962627,0.4390,-1.0981,0.3350,-49.94,22.74,-36.10
145,1042967627,0.4229,-1.0820,0.3315,-52.93,22.93,-38.29
146,1042972629,0.4126,-1.0669,0.3252,-54.88,23.23,-40.18
147,1042977629,0.4111,-1.0449,0.3281,-55.43,23.54,-41.95
148,1042982629,0.4023,-1.0293,0.3154,-54.02,23.84,-43.60
149,1042987629,0.3940,-1.0083,0.3037,-50.79,24.21,-45.06
150,1042992629,0.3721,-0.9961,0.3052,-45.79,24.51,-46.16
151,1042997630,0.3628,-0.9761,0.2944,-39.51,24.63,-47.20
152,1043002629,0.3506,-0.9487,0.2905,-32.62,24.82,-47.87
153,1043007629,0.3447,-0.9224,0.2793,-25.55,24.88,-48.48
154,1043012628,0.3413,-0.9019,0.2710,-19.15,25.12,-48.72
155,1043017631,0.3369,-0.8716,0.2705,-13.60,25.30,-48.84
156,1043022627,0.3320,-0.8491,0.2588,-8.90,25.43,-48.72
157,1043027629,0.3267,-0.8296,0.2485,-5.30,25.61,-48.41
158,1043032628,0.3281,-0.8081,0.2402,-3.11,25.61,-47.87
159,1043037629,0.3193,-0.7871,0.2305,-2.13,25.67,-47.07
160,1043042627,0.3149,-0.7705,0.2314,-2.68,25.85,-46.10
161,1043047629,0.3052,-0.7568,0.2241,-4.57,25.73,-44.94
162,1043052628,0.3027,-0.7363,0.2158,-7.87,26.04,-43.48
163,1043057629,0.3115,-0.7227,0.2085,-11.89,26.16,-41.95
164,1043062627,0.3252,-0.7046,0.2012,-16.28,26.40,-40.06
165,1043067627,0.3364,-0.6948,0.1958,-20.98,26.52,-38.05
166,1043072627,0.3442,-0.6890,0.1914,-25.55,26.95,-35.67
167,1043077627,0.3555,-0.6802,0.1802,-29.70,27.38,-33.05
168,1043082629,0.3638,-0.6729,0.1812,-33.29,27.68,-30.24
169,1043087629,0.3726,-0.6670,0.1685,-36.28,27.99,-27.20
170,1043092679,0.3760,-0.6665,0.1665,-38.84,28.23,-23.96
171,1043097629,0.3779,-0.6655,0.1616,-40.98,28.54,-20.61
172,1043102628,0.3691,-0.6621,0.1538,-42.68,28.72,-17.32
173,1043107629,0.3545,-0.6626,0.1519,-44.33,29.02,-14.02
174,1043112628,0.3530,-0.6670,0.1538,-45.67,29.39,-10.73
175,1043117627,0.3506,-0.6685,0.1543,-46.89,29.45,-7.44
176,1043122630,0.3423,-0.6660,0.1543,-47.68,29.63,-3.90
177,1043127629,0.3433,-0.6650,0.1548,-47.44,29.88,-1.46
178,1043132628,0.3457,-0.6621,0.1543,-46.65,29.94,1.34
179,1043137629,0.3452,-0.6641,0.1562,-45.00,30.00,3.90
180,1043142627,0.3462,-0.6699,0.1592,-42.56,30.12,6.40
181,1043147627,0.3408,-0.6772,0.1562,-39.88,30.06,8.72
182,1043152627,0.3359,-0.6816,0.1567,-37.07,30.06,10.91
183,1043157627,0.3267,-0.6860,0.1606,-34.39,29.94,12.68
184,1043162675,0.3228,-0.6943,0.1602,-31.71,29.88,14.21
185,1043167629,0.3120,-0.7017,0.1631,-29.39,29.70,15.30
186,1043172628,0.3071,-0.7139,0.1646,-27.38,29.45,16.16
187,1043177629,0.3042,-0.7329,0.1611,-25.67,29.27,16.77
188,1043182627,0.2920,-0.7485,0.1665,-24.39,28.96,17.07
189,1043187630,0.2842,-0.7607,0.1777,-23.23,28.60,17.20
190,1043192627,0.2905,-0.7739,0.1748,-21.77,28.29,17.38
191,1043197629,0.3105,-0.7808,0.1792,-19.63,27.87,17.20
192,1043202630,0.3281,-0.7993,0.1763,-16.59,27.62,17.01
193,1043207627,0.3472,-0.8115,0.1821,-12.32,27.32,16.89
194,1043212627,0.3691,-0.8208,0.1802,-7.32,26.83,16.77
195,1043217629,0.3892,-0.8291,0.1802,-1.95,26.52,16.65
196,1043222628,0.4043,-0.8379,0.1831,3.41,25.91,16.65
197,1043227627,0.4175,-0.8501,0.1846,8.11,25.61,16.71
198,1043232627,0.4355,-0.8579,0.1807,11.95,25.30,16.65
199,1043237629,0.4424,-0.8662,0.1826,14.39,24.88,16.46
200,1043242627,0.4492,-0.8750,0.1909,14.88,24.45,16.34
201,1043247627,0.4521,-0.8872,0.1914,13.90,24.21,15.98
202,1043252627,0.4639,-0.8911,0.1992,11.34,23.96,15.37
203,1043257627,0.4731,-0.9004,0.1943,7.68,23.66,14.82
204,1043262627,0.4795,-0.9097,0.2007,3.23,23.66,14.02
205,1043268348,0.4858,-0.9116,0.2085,-2.44,23.54,13.11
206,1043272629,0.4946,-0.9111,0.2095,-6.16,23.35,12.56
207,1043277629,0.5176,-0.9062,0.2188,-10.12,23.29,11.83
208,1043282627,0.5210,-0.9067,0.2261,-13.17,23.05,11.10
209,1043287629,0.5186,-0.9014,0.2295,-14.76,22.93,10.67
210,1043292628,0.5234,-0.8994,0.2256,-14.57,22.74,10.18
211,1043297629,0.5464,-0.8975,0.2305,-12.87,22.56,9.88
212,1043302630,0.5605,-0.8940,0.2271,-9.51,22.38,9.63
213,1043307629,0.5698,-0.8960,0.2261,-5.67,22.07,9.51
214,1043312629,0.5850,-0.8916,0.2266,-1.16,21.71,9.45
215,1043317628,0.6021,-0.8921,0.2368,3.29,21.34,9.21
216,1043322629,0.6030,-0.8926,0.2334,7.38,21.10,8.96
217,1043327627,0.6050,-0.8906,0.2432,10.43,20.85,8.54
218,1043332627,0.6084,-0.8882,0.2383,12.74,20.85,8.23
219,1043337629,0.6128,-0.8833,0.2417,13.96,20.55,7.56
220,1043342628,0.6152,-0.8809,0.2456,14.02,20.61,6.95
221,1043347627,0.6196,-0.8799,0.2476,12.99,20.67,6.22
222,1043352628,0.6157,-0.8711,0.2461,10.85,20.67,5.61
223,1043357627,0.6099,-0.8662,0.2544,7.80,20.73,4.82
224,1043362627,0.6030,-0.8604,0.2505,4.33,20.67,4.15
225,1043367627,0.6050,-0.8501,0.2485,0.49,20.67,3.60
226,1043372627,0.6011,-0.8418,0.2505,-3.66,20.67,2.87
227,1043377627,0.5947,-0.8242,0.2593,-7.74,20.67,2.26
228,1043382627,0.5864,-0.8169,0.2524,-11.28,20.91,1.52
229,1043387627,0.5796,-0.8052,0.2568,-13.90,20.98,1.10
230,1043392627,0.5693,-0.7979,0.2534,-15.43,20.91,0.61
231,1043397940,0.5547,-0.7788,0.2515,-15.79,20.98,0.43
232,1043402627,0.5454,-0.7676,0.2466,-15.18,21.16,0.37
233,1043407631,0.5352,-0.7578,0.2427,-13.48,21.10,0.49
234,1043412628,0.5371,-0.7520,0.2471,-10.91,21.28,0.67
235,1043417629,0.5308,-0.7441,0.2559,-7.13,21.46,1.10
236,1043422627,0.5181,-0.7378,0.2485,-0.98,21.71,1.71
237,1043427630,0.5112,-0.7334,0.2471,3.78,21.71,2.13
238,1043432629,0.5098,-0.7266,0.2422,10.12,21.89,2.74
239,1043437628,0.5020,-0.7241,0.2383,16.52,21.83,3.41
240,1043442629,0.4937,-0.7305,0.2461,22.38,21.95,3.96
241,1043447627,0.4971,-0.7295,0.2466,27.26,22.26,4.70
242,1043452627,0.4971,-0.7251,0.2510,30.73,22.26,5.24
243,1043457627,0.4961,-0.7227,0.2510,32.74,22.32,5.91
244,1043462627,0.5039,-0.7222,0.2622,32.68,22.26,6.46
245,1043467629,0.4990,-0.7246,0.2656,30.91,22.32,6.89
246,1043472627,0.4990,-0.7271,0.2656,28.11,22.26,7.32
247,1043477629,0.4956,-0.7305,0.2715,24.27,22.13,7.74
248,1043482628,0.5034,-0.7373,0.2700,20.00,22.01,8.35
249,1043487666,0.5083,-0.7500,0.2734,15.67,22.01,9.02
250,1043492631,0.5098,-0.7593,0.2686,11.40,21.71,9.63
251,1043497628,0.4951,-0.7598,0.2793,7.32,21.22,10.18
252,1043502627,0.4912,-0.7676,0.2842,3.54,21.04,10.61
253,1043507629,0.4897,-0.7739,0.2856,0.55,20.61,11.04
254,1043512627,0.4961,-0.7793,0.2817,-1.40,20.12,11.46
255,1043517629,0.4888,-0.7847,0.2866,-2.56,19.63,12.13
256,1043522629,0.4814,-0.7930,0.2896,-2.38,19.15,12.62
257,1043527627,0.4839,-0.7974,0.2910,-1.28,18.66,13.35
258,1043532631,0.4932,-0.8008,0.2930,0.79,18.05,14.09
259,1043537627,0.5029,-0.8096,0.2983,3.84,17.50,14.94
260,1043542629,0.5029,-0.8057,0.2954,7.56,16.71,15.79
261,1043547628,0.4966,-0.8184,0.2969,11.40,16.04,16.59
262,1043552627,0.4902,-0.8286,0.3071,15.61,15.18,17.26
263,1043557629,0.4844,-0.8408,0.3076,19.39,14.39,17.87
264,1043562627,0.4795,-0.8516,0.3096,22.68,13.48,18.41
265,1043567629,0.4717,-0.8643,0.3135,24.94,12.50,18.60
266,1043572629,0.4590,-0.8804,0.3262,26.04,11.83,18.60
267,1043577629,0.4541,-0.8940,0.3369,26.04,10.73,18.35
268,1043582629,0.4497,-0.9160,0.3403,25.00,9.70,17.87
269,1043587627,0.4395,-0.9287,0.3545,23.41,8.90,17.07
270,1043592627,0.4404,-0.9526,0.3608,21.71,7.93,16.34
271,1043597627,0.4434,-0.9697,0.3633,20.30,6.71,15.30
272,1043602628,0.4585,-0.9858,0.3672,19.02,5.67,14.15
273,1043607629,0.4580,-1.0063,0.3784,18.17,4.45,12.93
274,1043612713,0.4668,-1.0215,0.3872,17.44,3.05,11.59
275,1043617629,0.4702,-1.0400,0.3999,16.71,1.40,10.18
276,1043622629,0.4751,-1.0557,0.4004,15.98,-0.06,8.60
277,1043627628,0.4771,-1.0776,0.4150,14.94,-1.71,6.83
278,1043632631,0.4858,-1.0942,0.4219,13.60,-3.23,5.00
279,1043637627,0.4878,-1.1099,0.4297,12.07,-5.00,2.93
280,1043642629,0.4849,-1.1260,0.4380,10.67,-6.65,0.79
281,1043647628,0.4814,-1.1431,0.4414,9.45,-8.35,-1.59
282,1043652627,0.4849,-1.1499,0.4517,8.90,-10.06,-4.02
283,1043657627,0.4893,-1.1616,0.4517,8.90,-11.83,-6.59
284,1043662627,0.4917,-1.1685,0.4580,9.45,-13.41,-9.21
285,1043667629,0.4980,-1.1758,0.4648,10.73,-15.49,-12.56
286,1043672629,0.5034,-1.1753,0.4604,11.71,-16.83,-14.82
287,1043677627,0.5107,-1.1851,0.4668,13.11,-18.48,-17.74
288,1043682629,0.5166,-1.1880,0.4683,14.57,-20.18,-20.67
289,1043687939,0.5142,-1.1885,0.4688,15.73,-22.38,-24.27
290,1043692629,0.5210,-1.1836,0.4692,16.16,-23.84,-26.83
291,1043697629,0.5215,-1.1821,0.4634,15.85,-25.49,-30.00
292,1043702629,0.5156,-1.1768,0.4614,14.82,-27.38,-33.23
293,1043707629,0.4990,-1.1694,0.4658,12.99,-29.15,-36.65
294,1043712630,0.4878,-1.1602,0.4590,10.49,-30.85,-40.00
295,1043717629,0.4785,-1.1450,0.4551,7.87,-32.32,-43.35
296,1043722629,0.4795,-1.1250,0.4443,5.61,-33.90,-46.65
297,1043727629,0.4775,-1.1060,0.4365,4.09,-35.37,-49.76
298,1043732630,0.4819,-1.0786,0.4214,3.05,-36.71,-52.68
299,1043737629,0.4868,-1.0537,0.4106,2.68,-37.93,-55.30
300,1043742629,0.4946,-1.0190,0.4014,2.50,-38.78,-57.80
301,1043747629,0.5024,-0.9800,0.3867,2.13,-39.82,-59.94
302,1043752630,0.5005,-0.9492,0.3779,1.52,-40.67,-61.83
303,1043757629,0.4771,-0.9253,0.3652,0.43,-41.10,-63.29
304,1043762627,0.4614,-0.8833,0.3545,-0.37,-41.40,-64.39
305,1043767627,0.4775,-0.8418,0.3350,-0.61,-41.46,-65.18
306,1043772627,0.4971,-0.8008,0.3237,0.30,-41.40,-65.55
307,1043777629,0.5103,-0.7612,0.3086,2.62,-41.34,-65.61
308,1043782629,0.5210,-0.7236,0.2896,6.10,-41.04,-65.18
309,1043787627,0.5298,-0.6855,0.2720,10.43,-40.73,-64.27
310,1043792629,0.5391,-0.6514,0.2505,15.12,-40.37,-62.99
311,1043797628,0.5513,-0.6191,0.2354,19.63,-39.94,-61.16
312,1043802629,0.5469,-0.5791,0.2158,23.54,-39.39,-59.09
313,1043807628,0.5488,-0.5366,0.1982,26.46,-38.84,-56.59
314,1043813015,0.5479,-0.4858,0.1797,28.23,-38.11,-53.23
315,1043817630,0.5547,-0.4541,0.1724,28.35,-37.44,-50.67
316,1043822628,0.5713,-0.4067,0.1533,27.44,-36.46,-47.07
317,1043827629,0.5835,-0.3623,0.1460,26.28,-35.37,-43.05
318,1043832859,0.6084,-0.3198,0.1294,24.33,-33.90,-37.68
319,1043837630,0.6230,-0.2886,0.1230,22.87,-32.93,-33.72
320,1043842627,0.6382,-0.2627,0.1123,21.34,-31.59,-28.35
321,1043847627,0.6436,-0.2407,0.1089,19.57,-30.00,-21.40
322,1043852627,0.6494,-0.2378,0.0996,18.48,-28.84,-16.46
323,1043857627,0.6509,-0.2383,0.0981,17.44,-27.38,-10.24
324,1043862627,0.6484,-0.2354,0.0942,16.59,-25.91,-3.78
325,1043867627,0.6323,-0.2461,0.0996,15.85,-24.39,2.62
326,1043872627,0.6094,-0.2554,0.1108,15.43,-23.05,8.90
327,1043877627,0.5894,-0.2754,0.1138,15.06,-21.40,14.76
328,1043882627,0.5674,-0.2930,0.1274,15.18,-19.82,20.49
329,1043887627,0.5562,-0.3276,0.1313,15.79,-18.17,26.10
330,1043892631,0.5410,-0.3545,0.1523,17.38,-16.22,32.38
331,1043897629,0.5220,-0.3784,0.1606,19.33,-15.06,36.34
332,1043902629,0.5142,-0.4116,0.1670,22.20,-13.41,41.34
333,1043907628,0.5142,-0.4556,0.1851,25.85,-11.89,46.04
334,1043912629,0.5239,-0.4961,0.1997,30.12,-10.37,50.43
335,1043917629,0.5283,-0.5498,0.2202,34.70,-8.90,54.70
336,1043922627,0.5186,-0.5991,0.2314,39.57,-7.50,58.54
337,1043927627,0.4980,-0.6489,0.2490,44.39,-6.34,61.83
338,1043932627,0.4756,-0.6987,0.2656,48.66,-5.18,64.33
339,1043937823,0.4487,-0.7627,0.2852,53.05,-3.90,66.40
340,1043942629,0.4336,-0.8130,0.2959,55.61,-3.11,67.56
341,1043947628,0.4219,-0.8540,0.3140,57.01,-2.50,67.93
342,1043952627,0.4189,-0.9150,0.3330,57.44,-2.20,67.93
343,1043957629,0.4199,-0.9678,0.3477,56.65,-2.20,67.44
344,1043962627,0.4316,-1.0190,0.3701,54.39,-2.50,66.34
345,1043967627,0.4326,-1.0698,0.3857,50.79,-3.29,64.51
346,1043972629,0.4097,-1.1362,0.4121,44.45,-4.57,61.40
347,1043977629,0.3911,-1.1772,0.4292,39.51,-5.79,58.60
348,1043982629,0.3770,-1.2314,0.4502,32.93,-7.62,54.51
349,1043987629,0.3682,-1.2803,0.4688,27.13,-9.82,49.63
350,1043992629,0.3555,-1.3408,0.4780,21.83,-12.74,42.80
351,1043997627,0.3584,-1.3813,0.4893,19.76,-15.37,36.65
352,1044002627,0.3765,-1.4097,0.5098,19.88,-17.56,31.65
353,1044007629,0.4199,-1.4443,0.5122,23.05,-20.55,23.84
354,1044012628,0.4580,-1.4609,0.5127,27.87,-23.17,17.32
355,1044017629,0.4844,-1.4678,0.5220,33.29,-25.55,10.79
356,1044022627,0.5083,-1.4624,0.5303,37.74,-27.32,5.67
357,1044027627,0.5518,-1.4551,0.5396,43.23,-29.88,-2.07
358,1044032631,0.5923,-1.4492,0.5342,46.77,-31.77,-8.29
359,1044037628,0.6216,-1.4399,0.5327,49.21,-33.60,-14.15
360,1044042627,0.6362,-1.4341,0.5425,50.43,-35.30,-19.94
361,1044047629,0.6636,-1.4165,0.5483,50.67,-36.83,-25.30
362,1044052627,0.6929,-1.4019,0.5532,49.94,-38.41,-30.67
363,1044057627,0.7070,-1.3877,0.5586,48.96,-39.51,-34.70
364,1044062627,0.7114,-1.3691,0.5596,47.50,-40.85,-39.51
365,1044067629,0.7114,-1.3384,0.5679,45.91,-42.32,-45.00
366,1044072627,0.7261,-1.3076,0.5674,44.70,-43.54,-49.33
367,1044077627,0.7368,-1.2734,0.5737,43.90,-44.45,-53.23
368,1044082627,0.7437,-1.2476,0.5747,43.35,-45.30,-57.01
369,1044087627,0.7461,-1.2217,0.5713,43.17,-45.91,-59.88
370,1044092631,0.7461,-1.1914,0.5723,43.90,-46.71,-63.84
371,1044097629,0.7344,-1.1777,0.5825,45.12,-47.26,-66.95
372,1044102629,0.7354,-1.1499,0.5742,47.07,-47.62,-69.82
373,1044107629,0.7456,-1.1196,0.5747,49.63,-47.99,-72.38
374,1044112628,0.7539,-1.0918,0.5713,52.56,-48.48,-74.82
375,1044117629,0.7593,-1.0552,0.5654,55.24,-48.90,-77.07
376,1044122629,0.7637,-1.0142,0.5664,57.50,-49.15,-79.09
377,1044127627,0.7725,-0.9775,0.5610,58.11,-49.39,-80.67
378,1044132629,0.7744,-0.9209,0.5708,56.95,-49.51,-82.62
379,1044137826,0.7817,-0.8682,0.5693,53.72,-49.57,-84.15
380,1044142629,0.7803,-0.8223,0.5649,48.41,-49.70,-85.55
381,1044147628,0.7642,-0.7764,0.5635,41.83,-49.57,-86.46
382,1044152627,0.7349,-0.7246,0.5596,34.57,-49.51,-87.26
383,1044157629,0.7153,-0.6753,0.5566,27.32,-49.33,-87.99
384,1044162629,0.7017,-0.6304,0.5488,21.10,-49.09,-88.35
385,1044167628,0.6973,-0.5850,0.5298,16.28,-49.02,-88.41
386,1044172627,0.6787,-0.5391,0.5200,13.11,-48.72,-87.99
387,1044177629,0.6577,-0.4907,0.5122,11.46,-48.48,-87.38
388,1044182629,0.6387,-0.4492,0.5166,10.85,-48.23,-86.28
389,1044187628,0.6211,-0.4043,0.4985,11.52,-48.17,-84.88
390,1044192629,0.6045,-0.3657,0.4893,13.35,-47.93,-83.23
391,1044197630,0.5938,-0.3301,0.4668,16.04,-47.80,-81.28
392,1044202629,0.5913,-0.2974,0.4541,19.39,-47.80,-78.78
393,1044207629,0.5898,-0.2695,0.4453,22.80,-47.87,-76.16
394,1044212631,0.5830,-0.2354,0.4355,25.91,-47.74,-73.17
395,1044217628,0.5742,-0.2041,0.4336,28.11,-47.80,-70.12
396,1044222627,0.5791,-0.1772,0.4185,29.70,-47.80,-66.65
397,1044227627,0.5781,-0.1489,0.4165,30.43,-47.74,-63.23
398,1044232627,0.5864,-0.1289,0.4019,30.49,-47.74,-59.33
399,1044237629,0.5923,-0.1040,0.3926,29.94,-47.74,-55.37
400,1044242629,0.5947,-0.0820,0.3843,28.54,-47.50,-51.28
401,1044247629,0.6055,-0.0615,0.3789,26.71,-47.38,-46.95
402,1044252627,0.6313,-0.0493,0.3687,24.63,-46.95,-42.38
403,1044257627,0.6523,-0.0371,0.3555,22.50,-46.59,-37.50
404,1044262627,0.6655,-0.0332,0.3501,20.18,-46.22,-32.50
405,1044267627,0.6870,-0.0229,0.3521,17.80,-45.73,-27.56
406,1044272627,0.7012,-0.0132,0.3359,15.18,-45.00,-22.38
407,1044277905,0.7075,-0.0049,0.3301,12.62,-44.09,-17.26
408,1044282627,0.7129,-0.0005,0.3247,10.12,-43.11,-12.07
409,1044287629,0.7329,-0.0073,0.3198,7.93,-42.13,-6.89
410,1044292628,0.7593,-0.0259,0.3052,6.10,-40.91,-1.65
411,1044297875,0.7783,-0.0352,0.2920,4.88,-39.82,3.72
412,1044302629,0.7764,-0.0625,0.2959,3.96,-38.60,8.90
413,1044307628,0.7861,-0.0908,0.2974,3.48,-37.44,13.84
414,1044312629,0.7935,-0.1304,0.2949,4.02,-35.98,18.35
415,1044317628,0.7925,-0.1709,0.2886,5.79,-34.57,22.38
416,1044322629,0.7837,-0.2188,0.2896,8.23,-33.35,26.04
417,1044327630,0.7935,-0.2759,0.2983,11.34,-32.32,29.09
418,1044332627,0.8154,-0.3384,0.3042,14.45,-31.10,31.65
419,1044337629,0.8252,-0.3999,0.3105,17.44,-29.76,33.41
420,1044342628,0.8359,-0.4727,0.3208,20.24,-28.41,34.51
421,1044347629,0.8555,-0.5405,0.3301,22.32,-27.07,34.70
422,1044352627,0.8691,-0.6157,0.3403,23.78,-25.79,34.27
423,1044357627,0.8921,-0.6938,0.3574,24.39,-24.21,33.05
424,1044362942,0.9146,-0.7690,0.3633,24.27,-22.87,30.91
425,1044367629,0.9277,-0.8447,0.3745,22.99,-21.59,28.23
426,1044372627,0.9316,-0.9238,0.3911,20.49,-20.49,24.51
427,1044377627,0.9526,-1.0127,0.4087,16.65,-19.51,20.12
428,1044382627,0.9648,-1.0981,0.4272,11.28,-18.90,14.88
429,1044387627,0.9380,-1.1660,0.4521,4.70,-18.29,8.72
430,1044392627,0.9185,-1.2485,0.4731,-2.87,-17.93,1.46
431,1044397629,0.9097,-1.3276,0.4888,-10.18,-17.68,-6.65
432,1044402629,0.9077,-1.3960,0.4922,-16.65,-17.80,-15.43
433,1044407628,0.8813,-1.4556,0.4912,-21.89,-19.15,-24.82
434,1044412629,0.8408,-1.5063,0.5034,-26.16,-18.60,-34.88
435,1044417628,0.8096,-1.5410,0.5137,-28.96,-18.84,-45.37
436,1044422629,0.7812,-1.5688,0.5015,-30.49,-19.33,-56.16
437,1044427629,0.7607,-1.5771,0.4868,-30.43,-19.88,-67.01
438,1044432630,0.7412,-1.5620,0.4785,-28.90,-20.30,-77.87
439,1044437627,0.7246,-1.5522,0.4624,-26.28,-20.37,-88.78
440,1044442627,0.7280,-1.5146,0.4561,-23.11,-20.67,-99.27
441,1044447628,0.7236,-1.4707,0.4336,-19.94,-20.79,-109.39
442,1044452629,0.7139,-1.4150,0.4106,-17.07,-20.67,-118.96
443,1044457628,0.7144,-1.3472,0.3896,-15.30,-20.73,-127.99
444,1044462627,0.7104,-1.2656,0.3799,-15.06,-20.43,-136.40
445,1044467627,0.7207,-1.1758,0.3613,-16.46,-19.82,-144.02
446,1044472627,0.7266,-1.0869,0.3535,-18.72,-18.84,-150.73
447,1044477627,0.7305,-0.9961,0.3203,-21.71,-17.68,-156.59
448,1044482708,0.7344,-0.8921,0.3174,-25.00,-16.04,-161.46
449,1044487628,0.7480,-0.7930,0.3267,-28.35,-14.45,-165.61
450,1044492627,0.7217,-0.6846,0.3154,-31.16,-12.32,-168.78
451,1044497629,0.6758,-0.5840,0.3164,-32.13,-10.18,-171.22
452,1044502627,0.6641,-0.4863,0.3223,-31.10,-7.99,-172.50
453,1044507627,0.6797,-0.3765,0.3179,-28.41,-5.91,-172.56
454,1044512627,0.6694,-0.2773,0.3315,-24.51,-4.02,-171.59
455,1044517629,0.6465,-0.1650,0.3477,-19.88,-2.56,-169.51
456,1044522630,0.6289,-0.0537,0.3604,-14.76,-1.28,-166.34
457,1044527627,0.6206,0.0532,0.3701,-9.33,-0.12,-162.32
458,1044532630,0.6128,0.1411,0.3867,-3.84,0.61,-157.13
459,1044537628,0.5879,0.2471,0.4019,1.59,1.28,-151.04
460,1044542628,0.5474,0.3589,0.4048,7.13,1.52,-143.96
461,1044547627,0.5093,0.4663,0.4131,12.99,1.71,-136.16
462,1044552627,0.4678,0.5518,0.4004,19.33,1.46,-127.50
463,1044557627,0.4648,0.6484,0.3999,26.28,0.98,-117.80
464,1044562629,0.4565,0.7241,0.3911,33.54,0.49,-106.83
465,1044567628,0.4443,0.7949,0.3657,40.79,-0.43,-94.76
466,1044572629,0.4199,0.8657,0.3335,47.01,-1.65,-81.65
467,1044577628,0.4116,0.9365,0.3081,51.22,-3.17,-67.80
468,1044582629,0.4253,0.9819,0.2935,52.13,-4.76,-52.99
469,1044587629,0.4521,1.0273,0.2803,49.02,-6.22,-37.56
470,1044592627,0.4570,1.0649,0.2710,41.40,-7.87,-21.77
471,1044597627,0.4336,1.0996,0.2725,30.00,-9.57,-5.85
472,1044602629,0.4146,1.1152,0.2754,16.04,-11.22,10.00
473,1044607629,0.3965,1.1489,0.2539,1.89,-12.87,25.73
474,1044612629,0.3721,1.1411,0.2559,-11.22,-15.06,41.34
475,1044617628,0.3823,1.1279,0.2441,-22.93,-17.20,56.89
476,1044622627,0.3984,1.1152,0.2446,-32.62,-19.63,72.80
477,1044627627,0.4141,1.1055,0.2383,-40.24,-22.20,88.66
478,1044632627,0.4390,1.0962,0.2393,-45.37,-24.63,104.21
479,1044637627,0.4785,1.0576,0.2505,-47.32,-26.89,119.94
480,1044642629,0.4990,1.0142,0.2744,-44.33,-28.84,135.24
481,1044647629,0.4736,0.9858,0.2759,-34.45,-30.73,150.37
482,1044652628,0.4194,0.9375,0.2778,-17.26,-32.07,165.00
483,1044657631,0.4053,0.8574,0.2842,5.79,-33.17,178.96
484,1044662628,0.4663,0.7007,0.3135,32.80,-33.84,193.29
485,1044667629,0.5352,0.5400,0.3076,60.98,-34.02,207.87
486,1044672629,0.5181,0.4297,0.3008,86.83,-34.02,221.71
487,1044677627,0.4590,0.3433,0.3130,107.01,-34.09,233.78
488,1044682627,0.4292,0.2227,0.3354,119.51,-33.48,243.78
489,1044687629,0.4619,0.0747,0.3623,124.39,-32.80,252.07
490,1044692629,0.4868,-0.0488,0.3696,123.05,-32.01,258.96
491,1044697631,0.4463,-0.1621,0.3730,117.07,-31.52,263.96
492,1044702629,0.4023,-0.3149,0.3877,107.68,-31.59,267.07
493,1044707629,0.4131,-0.4722,0.4072,95.18,-31.95,268.72
494,1044712627,0.4053,-0.6177,0.4180,80.24,-33.05,268.60
495,1044718002,0.3745,-0.7705,0.4424,62.99,-34.76,266.52
496,1044722629,0.3379,-0.9346,0.4751,44.39,-37.32,262.62
497,1044727628,0.3037,-1.1138,0.5049,25.91,-40.61,256.95
498,1044732627,1.4443,-13.3525,-2.3525,-61.46,-4.70,196.40
499,1044737630,1.3804,-5.4258,-1.7949,-136.28,-11.83,92.32
500,1044742627,0.7593,-2.4912,-0.6729,-137.99,-22.80,46.34
501,1044747627,1.0850,-2.9531,0.4189,-129.09,-31.10,18.54
502,1044752628,1.1587,-3.0806,-0.1377,-129.15,-21.71,-2.07
503,1044757629,0.9634,-2.2842,0.0059,-117.87,-18.66,-14.82
504,1044762629,0.9053,-1.6270,0.5137,-83.48,-21.83,-22.74
505,1044767629,0.9302,-1.4600,0.2183,-41.89,-22.56,-28.96
506,1044772627,0.9668,-1.5996,0.1553,-4.82,-22.68,-35.18
507,1044777627,0.9829,-1.7505,0.4780,24.76,-24.02,-41.52
508,1044782629,1.0161,-1.7744,0.3721,43.84,-24.39,-48.60
509,1044787628,1.0205,-1.6733,0.2539,50.06,-24.09,-56.77
510,1044792629,0.9932,-1.5874,0.3848,45.24,-24.82,-65.67
511,1044797629,0.9883,-1.5835,0.3403,31.83,-25.12,-75.00
512,1044802629,0.9897,-1.5977,0.2622,12.68,-25.00,-84.21
513,1044807629,0.9980,-1.5615,0.3223,-9.02,-24.94,-93.41
514,1044812628,0.9785,-1.5015,0.3120,-29.94,-24.57,-102.62
515,1044817629,0.9385,-1.4404,0.2466,-47.99,-23.96,-111.40
516,1044822627,0.8853,-1.3809,0.2661,-61.77,-23.23,-119.76
517,1044827629,0.8452,-1.3267,0.2754,-70.43,-22.13,-127.74
518,1044832628,0.7954,-1.2764,0.2397,-74.45,-20.49,-135.24
519,1044837629,0.7358,-1.1992,0.2441,-73.84,-18.35,-141.83
520,1044842629,0.6973,-1.1206,0.2539,-69.39,-15.91,-147.93
521,1044847629,0.6548,-1.0293,0.2402,-61.34,-13.23,-153.29
522,1044852627,0.6094,-0.9263,0.2354,-50.30,-10.30,-158.05
523,1044857628,0.5991,-0.8110,0.2300,-36.65,-7.20,-162.20
524,1044862629,0.6060,-0.7056,0.2041,-21.77,-4.09,-165.61
525,1044867629,0.5962,-0.5908,0.1929,-7.13,-1.22,-167.99
526,1044872629,0.5869,-0.4761,0.2026,5.91,1.59,-169.57
527,1044877628,0.5679,-0.3457,0.1973,16.10,4.39,-170.30
528,1044882627,0.5576,-0.2183,0.1860,23.11,7.01,-170.30
529,1044887627,0.5439,-0.0928,0.1870,27.38,9.45,-169.33
530,1044892629,0.5220,0.0459,0.1777,28.90,12.01,-167.38
531,1044897627,0.5005,0.1729,0.1646,28.90,14.45,-164.45
532,1044902627,0.4834,0.2974,0.1650,27.80,16.65,-160.43
533,1044907627,0.4727,0.4087,0.1553,26.22,18.84,-154.88
534,1044912629,0.4600,0.5327,0.1445,24.33,20.67,-148.05
535,1044917628,0.4307,0.6582,0.1494,22.93,22.56,-139.82
536,1044922629,0.4248,0.7778,0.1465,21.77,24.09,-130.43
537,1044927629,0.4263,0.8960,0.1313,21.77,25.55,-119.51
538,1044932629,0.4385,1.0000,0.1172,23.05,27.01,-106.95
539,1044937628,0.4443,1.0972,0.1069,25.43,28.11,-92.80
540,1044942630,0.4458,1.1934,0.0972,28.72,29.09,-77.32
541,1044947628,0.4390,1.2793,0.0757,32.20,29.70,-60.55
542,1044952628,0.4268,1.3540,0.0835,35.12,30.43,-42.80
543,1044957627,0.4136,1.4155,0.0767,37.13,30.91,-24.39
544,1044962627,0.3911,1.4595,0.0723,38.11,31.28,-5.49
545,1044967629,0.3706,1.4888,0.0879,38.17,31.46,13.78
546,1044972629,0.3599,1.4854,0.1152,37.93,31.65,33.29
547,1044977627,0.3374,1.4829,0.1348,38.35,31.52,52.68
548,1044982627,0.2896,1.4722,0.1528,40.61,30.98,71.95
549,1044987629,0.2427,1.4458,0.1660,44.88,30.18,90.91
550,1044992630,0.2280,1.4106,0.1831,51.28,29.09,109.33
551,1044997629,0.2417,1.3584,0.2207,58.90,27.68,127.74
552,1045002631,0.2656,1.3008,0.2529,67.50,26.83,145.85
553,1045007628,0.2759,1.2314,0.2739,76.65,26.04,163.72
554,1045012627,0.2788,1.1411,0.2954,85.61,25.24,181.28
555,1045017629,0.2944,1.0293,0.3232,93.23,24.45,198.54
556,1045022629,0.3491,0.8804,0.3574,97.99,23.72,215.43
557,1045027628,0.4009,0.7402,0.3813,99.09,22.50,231.71
558,1045032627,0.3916,0.6108,0.3940,95.85,21.10,246.71
559,1045037627,0.3657,0.4805,0.4321,88.35,19.09,259.88
560,1045042627,0.3472,0.3306,0.4707,77.20,16.59,271.40
561,1045047631,0.3438,0.1841,0.5073,64.33,13.84,281.04
562,1045052629,0.3091,0.0498,0.5215,51.16,10.30,289.02
563,1045057629,0.2432,-0.0908,0.5522,39.21,6.34,294.94
564,1045062629,0.1782,-0.2397,0.5747,28.72,1.95,299.02
565,1045067628,1.7983,-10.0449,0.2656,15.18,-3.72,283.78
566,1045072630,0.8271,-11.0278,-0.5483,11.04,9.02,101.40
567,1045077629,1.4165,-4.7939,-0.9336,-86.04,10.79,22.68
568,1045082629,1.3491,-2.6328,0.6030,-119.82,5.37,-9.57
569,1045087628,1.1211,-1.9238,0.3960,-102.01,2.32,-25.79
570,1045092629,0.9297,-1.1460,0.2983,-71.22,-1.52,-32.32
571,1045097629,0.9976,-0.6865,0.8354,-48.54,-6.71,-33.11
572,1045102627,0.9927,-0.6064,0.6235,-38.17,-8.54,-31.46
573,1045107630,0.9443,-0.4810,0.3003,-33.48,-9.27,-28.48
574,1045112629,0.9272,-0.3750,0.5415,-29.51,-10.85,-25.91
575,1045117628,0.9419,-0.4189,0.5093,-25.61,-12.07,-23.60
576,1045122631,0.9751,-0.4961,0.2764,-22.44,-12.32,-21.52
577,1045127627,0.9790,-0.5044,0.3662,-20.49,-12.50,-19.70
578,1045132627,0.9644,-0.4844,0.4116,-19.51,-12.50,-18.29
579,1045137631,0.9634,-0.4624,0.2500,-19.63,-11.83,-17.20
580,1045143097,0.9736,-0.4609,0.2681,-20.73,-11.10,-16.22
581,1045147629,0.9736,-0.4658,0.3174,-22.93,-10.24,-15.37
582,1045152627,0.9585,-0.4746,0.2402,-26.16,-9.21,-14.51
583,1045157627,0.9292,-0.4546,0.2168,-30.43,-8.17,-13.96
584,1045162630,0.9004,-0.4302,0.2578,-35.37,-7.26,-13.60
585,1045167629,0.8828,-0.4126,0.2153,-40.67,-6.22,-13.41
586,1045172629,0.8838,-0.3970,0.1855,-45.91,-4.88,-12.99
587,1045177629,0.8765,-0.3848,0.2056,-50.85,-3.60,-12.62
588,1045182628,0.8765,-0.3687,0.1826,-55.43,-2.50,-12.07
589,1045187629,0.8789,-0.3472,0.1543,-59.63,-1.16,-11.46
590,1045192628,0.8857,-0.3354,0.1729,-63.54,0.18,-10.49
591,1045197630,0.8926,-0.3325,0.1743,-67.01,1.71,-9.21
592,1045202629,0.9141,-0.3203,0.1411,-69.70,3.66,-7.56
593,1045207629,0.9160,-0.3223,0.1528,-71.46,5.49,-5.91
594,1045212740,0.9238,-0.3447,0.1562,-71.46,7.44,-3.90
595,1045217629,0.9629,-0.3828,0.1362,-69.76,9.70,-1.65
596,1045222629,0.9980,-0.4058,0.1401,-66.28,11.83,0.91
597,1045227629,0.9854,-0.4160,0.1450,-60.91,13.72,3.11
598,1045232628,0.9570,-0.4248,0.1572,-54.51,15.49,4.94
599,1045237629,0.9341,-0.4307,0.1646,-47.50,17.01,6.16
600,1045242629,0.9146,-0.4409,0.1841,-40.55,18.66,6.95
601,1045247630,0.9028,-0.4541,0.1851,-33.48,19.94,7.44
602,1045252628,0.8931,-0.4624,0.1973,-26.77,21.04,7.50
603,1045257629,0.8770,-0.4678,0.2051,-20.30,22.26,7.26
604,1045262627,0.8613,-0.4624,0.2061,-14.27,23.17,6.71
605,1045267630,0.8350,-0.4692,0.1992,-8.90,23.96,5.85
606,1045272629,0.8120,-0.4854,0.1934,-5.06,24.33,5.00
607,1045277628,0.7886,-0.4849,0.1885,-2.93,24.51,3.96
608,1045282629,0.7803,-0.4639,0.1929,-2.93,24.82,2.87
609,1045287630,0.7808,-0.4443,0.1963,-5.43,25.06,1.40
610,1045292629,0.7808,-0.4355,0.1929,-10.06,25.49,0.06
611,1045297627,0.7900,-0.4238,0.1929,-16.40,25.85,-1.28
612,1045302629,0.8096,-0.4121,0.1934,-23.84,26.22,-2.50
613,1045307628,0.8481,-0.4175,0.1963,-31.46,26.28,-3.23
614,1045312629,0.8911,-0.4214,0.2119,-38.90,26.59,-3.72
615,1045317627,0.9204,-0.4302,0.2119,-45.79,26.46,-3.78
616,1045322629,0.9077,-0.4580,0.2158,-51.65,26.28,-3.54
617,1045327628,0.8872,-0.4795,0.2261,-56.10,25.85,-2.99
618,1045332629,0.8916,-0.4761,0.2285,-58.96,25.12,-2.13
619,1045337628,0.8984,-0.4688,0.2388,-59.88,23.96,-1.34
620,1045342630,0.8965,-0.4585,0.2422,-59.02,22.68,-0.98
621,1045347628,0.8750,-0.4766,0.2559,-57.07,21.16,-0.79
622,1045352631,0.8379,-0.4863,0.2495,-54.09,19.51,-0.49
623,1045357627,0.8188,-0.4902,0.2622,-51.04,17.93,-0.18
624,1045362629,0.8145,-0.4814,0.2612,-47.87,16.28,0.00
625,1045367628,0.8174,-0.4756,0.2646,-44.82,14.57,-0.12
626,1045372629,0.8228,-0.4727,0.2764,-41.95,13.05,-0.30
627,1045377627,0.8335,-0.4810,0.2793,-39.51,11.65,-0.49
628,1045382629,0.8511,-0.4878,0.2910,-37.93,10.12,-0.61
629,1045387627,0.8823,-0.5098,0.2954,-36.95,8.90,-0.37
630,1045392627,0.8979,-0.5244,0.2891,-36.89,7.20,0.00
631,1045397627,0.9146,-0.5425,0.2900,-37.99,5.06,0.55
632,1045402627,0.9263,-0.5479,0.2969,-40.85,2.87,0.91
633,1045407801,0.9263,-0.5542,0.3018,-45.98,0.49,1.22
634,1045412629,0.9312,-0.5537,0.3296,-53.41,-2.01,1.10
635,1045417629,0.9438,-0.5532,0.3550,-62.87,-4.21,0.79
636,1045422629,0.9570,-0.5449,0.3721,-73.29,-5.91,-0.06
637,1045427629,1.0269,-0.5078,0.3833,-82.99,-7.32,-1.40
638,1045432628,0.9946,-0.5312,0.3887,-91.04,-8.72,-2.99
639,1045437629,0.9292,-0.5771,0.3779,-96.28,-9.82,-4.21
640,1045442629,0.8921,-0.6235,0.3418,-97.74,-11.28,-4.76
641,1045447629,0.8755,-0.6494,0.3110,-95.49,-13.35,-4.82
642,1045452630,0.8906,-0.6523,0.3071,-89.88,-15.37,-4.63
643,1045457629,0.9180,-0.6421,0.3193,-81.89,-17.44,-4.57
644,1045462627,0.9404,-0.6392,0.3052,-72.50,-19.51,-4.45
645,1045467627,0.9546,-0.6636,0.2905,-62.44,-21.71,-4.33
646,1045472715,0.8584,-1.0347,-0.2310,-51.71,-23.35,-4.21
647,1045477717,1.4438,-1.1069,-0.6030,-33.35,-24.45,-3.72
648,1045482631,1.4419,-0.9746,-0.6987,-10.24,-22.13,-5.18
649,1045487628,1.0771,-0.9282,-0.5718,8.05,-16.46,-7.87
650,1045492629,0.7163,-0.8491,-0.1641,15.00,-11.59,-11.40
651,1045497627,0.6206,-0.7583,0.0947,13.66,-9.57,-15.79
652,1045502629,0.6597,-0.7603,0.0864,8.35,-9.57,-20.00
653,1045507628,0.7168,-0.7695,0.1074,0.91,-10.37,-23.05
654,1045512629,0.7393,-0.7642,0.1577,-7.26,-11.28,-25.18
655,1045517627,0.7617,-0.7402,0.1211,-15.12,-12.01,-27.50
656,1045522631,0.7437,-0.7578,0.0537,-22.38,-12.26,-30.30
657,1045527628,0.7104,-0.8335,0.0566,-28.66,-11.59,-33.29
658,1045532629,0.7178,-0.8379,0.1011,-34.57,-10.49,-36.28
659,1045537627,0.7202,-0.7241,0.0283,-38.66,-9.39,-40.24
660,1045542629,0.7642,-0.7271,0.0234,-40.85,-8.54,-44.82
661,1045547628,0.7695,-0.7412,0.0327,-42.38,-7.50,-48.48
662,1045552627,0.7563,-0.7666,0.0532,-43.66,-6.46,-51.34
663,1045557631,0.8374,-0.7124,0.0542,-45.00,-5.49,-53.72
664,1045562627,0.8755,-0.6816,0.1006,-46.59,-4.76,-55.61
665,1045567629,0.8867,-0.6313,0.1685,-48.54,-3.84,-56.89
666,1045572629,0.9028,-0.6318,0.2271,-50.61,-2.80,-57.38
667,1045577629,0.9648,-0.6255,0.2607,-52.20,-1.89,-57.13
668,1045582628,1.0391,-0.6001,0.2739,-52.20,-1.10,-56.34
669,1045587629,1.0835,-0.5713,0.2734,-50.55,-0.61,-55.43
670,1045592629,1.1128,-0.5435,0.2695,-47.50,-0.55,-54.09
671,1045597629,1.1299,-0.5405,0.2798,-43.60,-0.43,-52.38
672,1045602628,1.1431,-0.5244,0.2817,-39.15,-0.30,-50.30
673,1045607629,1.1558,-0.5513,0.3359,-34.94,0.61,-47.62
674,1045612627,1.2153,-0.5259,0.2681,-31.04,1.40,-44.63
675,1045617629,1.2510,-0.4751,0.2324,-27.56,1.65,-41.95
676,1045622631,1.2275,-0.4238,0.2510,-25.18,1.65,-39.63
677,1045627627,1.1831,-0.3877,0.2612,-23.78,1.04,-37.50
678,1045632629,1.1201,-0.4321,0.2949,-23.72,0.73,-35.30
679,1045637628,1.0396,-0.4590,0.3164,-24.70,0.37,-32.93
680,1045642629,0.9819,-0.4512,0.3188,-25.67,0.06,-30.61
681,1045647628,0.9536,-0.4180,0.2832,-25.61,-0.73,-28.78
682,1045652629,0.9570,-0.3862,0.2593,-24.21,-1.89,-27.68
683,1045657629,0.9775,-0.3735,0.2710,-21.83,-3.35,-27.26
684,1045662627,0.9878,-0.4028,0.3311,-18.72,-4.21,-26.89
685,1045667629,0.9614,-0.4395,0.3535,-15.43,-4.57,-26.34
686,1045672627,0.9097,-0.6357,0.4175,-12.07,-4.09,-24.82
687,1045677629,0.8486,-0.6885,0.2261,-10.55,-3.23,-21.28
688,1045682629,0.9072,-0.5659,0.1494,-8.78,-4.88,-18.78
689,1045687631,0.9565,-0.5508,-0.0811,-5.61,-7.93,-18.41
690,1045692628,0.9282,-0.6777,-0.1406,-0.79,-11.83,-19.45
691,1045697628,1.0005,-0.7461,-0.1992,5.55,-15.67,-22.01
692,1045702629,0.9844,-0.6719,0.0122,13.60,-16.83,-26.16
693,1045707628,0.9399,-0.6416,0.1528,23.84,-15.37,-31.22
694,1045712627,1.0161,-0.6431,0.1841,36.22,-14.21,-35.55
695,1045717629,1.0571,-0.7017,0.1382,49.82,-13.54,-38.41
696,1045722629,1.0112,-0.7632,0.1714,63.48,-13.84,-40.00
697,1045727629,0.9517,-0.8096,0.2510,76.34,-14.21,-40.67
698,1045732629,0.8970,-0.8423,0.2964,88.11,-14.09,-41.22
699,1045737627,0.8276,-0.8643,0.3735,98.84,-12.99,-42.20
700,1045742629,0.7729,-0.8242,0.4976,108.48,-11.40,-43.90
701,1045747628,0.7422,-0.7583,0.5435,117.01,-9.45,-46.40
702,1045752630,0.7061,-0.7026,0.5264,123.84,-8.05,-48.84
703,1045757627,0.5776,-0.6797,0.5278,128.84,-6.71,-50.79
704,1045762631,0.4536,-0.6333,0.4551,130.37,-5.85,-52.13
705,1045767628,0.3950,-0.6274,0.3652,129.09,-5.85,-53.54
706,1045772629,0.4365,-0.5850,0.3057,126.59,-6.04,-55.12
707,1045777627,0.5166,-0.5596,0.2822,121.10,-6.04,-57.38
708,1045782629,0.6519,-0.5454,0.2998,114.33,-5.55,-59.57
709,1045787629,0.7456,-0.5415,0.3105,106.95,-4.45,-61.83
710,1045792629,0.7788,-0.5342,0.3130,99.39,-3.05,-63.84
711,1045797629,0.7725,-0.5415,0.3101,92.26,-2.07,-65.43
712,1045802628,0.7236,-0.5986,0.3223,86.22,-1.04,-66.22
713,1045807629,0.7056,-0.4775,0.2998,82.38,-0.30,-66.89
714,1045812629,0.6953,-0.4067,0.2778,80.18,0.12,-68.23
715,1045817629,0.6709,-0.4536,0.3291,79.09,0.49,-69.39
716,1045822628,0.6421,-0.4937,0.4102,77.80,1.65,-70.06
717,1045827629,0.7222,-0.4648,0.3823,76.40,2.56,-70.43
718,1045832629,0.8271,-0.4824,0.3921,75.67,2.99,-71.04
719,1045837629,0.8862,-0.4067,0.5225,76.10,3.66,-71.28
720,1045842628,0.9199,-0.4067,0.4819,77.62,5.30,-71.52
721,1045847629,0.9199,-0.4556,0.4966,81.10,7.20,-70.49
722,1045852628,0.8955,-0.3789,0.3901,87.26,9.27,-68.84
723,1045857627,0.9258,-0.4106,0.3945,96.46,10.37,-66.89
724,1045862627,0.9805,-0.4473,0.3940,108.23,11.59,-63.96
725,1045867629,1.0371,-0.5005,0.3574,121.10,12.32,-59.82
726,1045872627,1.0508,-0.4111,0.4180,133.41,12.74,-55.30
727,1045877627,1.0674,-0.3877,0.4072,144.33,13.60,-50.67
728,1045882629,1.0698,-0.3960,0.3936,151.71,14.09,-46.04
729,1045887629,1.0947,-0.3672,0.4082,153.90,14.76,-41.52
730,1045892629,1.1025,-0.3481,0.3618,151.28,15.30,-37.01
731,1045897627,1.0864,-0.2710,0.2939,143.48,15.12,-32.56
732,1045902629,1.0503,-0.2690,0.2954,131.95,14.09,-28.48
733,1045907628,1.0557,-0.2935,0.3320,116.71,12.07,-24.63
734,1045912629,0.9927,-0.3335,0.3706,98.11,9.45,-21.10
735,1045917627,0.9199,-0.2520,0.3804,77.07,6.89,-17.93
736,1045922629,0.9717,-0.2437,0.4053,57.68,3.96,-15.91
737,1045927628,0.9629,-0.2554,0.4082,43.11,1.04,-13.72
738,1045932629,0.8599,-0.2676,0.4229,33.78,-1.71,-11.65
739,1045937627,0.8125,-0.2705,0.4341,28.60,-4.76,-9.82
740,1045942629,0.7905,-0.2554,0.4404,26.83,-7.62,-8.05
741,1045947628,0.7261,-0.2534,0.4414,28.17,-10.12,-6.46
742,1045952629,0.6685,-0.2285,0.4600,32.56,-12.13,-5.18
743,1045957628,0.6499,-0.1953,0.4814,40.43,-13.66,-4.27
744,1045962627,0.6016,-0.1831,0.4854,52.44,-14.02,-4.02
745,1045967631,0.6084,-0.1626,0.5137,68.78,-14.21,-3.90
746,1045972628,0.5889,-0.1328,0.4819,88.17,-14.51,-3.48
747,1045977627,0.5801,-0.1157,0.4414,108.96,-14.94,-2.38
748,1045982627,0.5977,-0.1162,0.4175,127.50,-15.79,-0.61
749,1045987627,0.5874,-0.1128,0.3994,142.01,-16.77,1.28
750,1045992629,0.5762,-0.1060,0.3838,149.39,-17.38,2.68
751,1045997627,0.5806,-0.1294,0.3574,149.27,-17.44,3.41
752,1046002629,0.5938,-0.1562,0.2988,142.80,-16.89,3.84
753,1046007628,0.6099,-0.1978,0.2515,132.20,-16.16,3.72
754,1046012627,0.6147,-0.2505,0.2295,120.30,-15.37,3.11
755,1046017627,0.5947,-0.3062,0.2329,109.21,-14.21,1.95
756,1046022628,0.5972,-0.3682,0.2456,101.04,-12.62,0.37
757,1046027627,0.6152,-0.4321,0.2314,97.74,-10.91,-1.52
758,1046032629,0.6519,-0.4824,0.2036,98.90,-9.33,-3.60
759,1046037628,0.6611,-0.5264,0.1758,102.68,-7.62,-5.67
760,1046042629,0.6724,-0.5605,0.1499,106.40,-6.22,-7.93
761,1046047627,0.6787,-0.5796,0.1406,108.84,-4.63,-10.91
762,1046052629,0.6895,-0.6089,0.1191,110.12,-3.11,-14.27
763,1046057628,0.7036,-0.6191,0.1133,110.43,-1.89,-17.99
764,1046062627,0.7319,-0.6377,0.1167,109.33,-0.67,-21.59
765,1046067704,0.7593,-0.6235,0.1255,106.71,0.30,-25.18
766,1046072629,0.7817,-0.5957,0.1421,101.83,1.46,-28.84
767,1046077629,0.8252,-0.5684,0.1465,96.16,2.50,-31.83
768,1046082629,0.8721,-0.5381,0.1504,90.85,3.72,-34.02
769,1046087627,0.9102,-0.5083,0.1650,86.77,4.76,-35.37
770,1046092627,0.9624,-0.4810,0.1621,84.27,5.73,-35.91
771,1046097648,0.9941,-0.4609,0.1592,83.54,7.01,-35.79
772,1046102629,1.0117,-0.4360,0.1685,84.82,8.29,-34.88
773,1046107629,1.0293,-0.4209,0.1763,88.60,9.76,-33.72
774,1046112628,1.0264,-0.4111,0.1948,94.76,10.91,-32.26
775,1046117730,1.0107,-0.4009,0.2114,102.26,12.01,-30.67
776,1046122630,0.9902,-0.3809,0.2417,110.37,12.56,-29.33
777,1046127627,0.9785,-0.3804,0.2656,118.35,12.80,-28.23
778,1046132629,0.9365,-0.3813,0.3003,124.70,12.38,-27.50
779,1046137628,0.9043,-0.3765,0.3350,127.93,11.16,-27.38
780,1046142629,0.8882,-0.3843,0.3594,127.26,9.39,-27.62
781,1046147627,0.8965,-0.3887,0.3901,122.80,6.89,-28.17
782,1046152627,0.9116,-0.3979,0.4185,115.98,3.96,-29.02
783,1046157629,0.9438,-0.4087,0.4321,108.78,1.04,-29.94
784,1046162629,0.9829,-0.4248,0.4170,102.56,-2.20,-30.79
785,1046167628,1.0112,-0.4155,0.4404,99.21,-5.55,-30.98
786,1046172628,1.0498,-0.4360,0.5039,98.84,-8.29,-30.79
787,1046177629,1.0327,-0.3760,0.4434,103.17,-10.61,-30.06
788,1046182627,1.0708,-0.3730,0.3706,110.55,-12.80,-29.21
789,1046187628,1.0718,-0.3325,0.4414,116.89,-14.51,-27.99
790,1046192628,1.0698,-0.3149,0.4253,120.73,-15.98,-26.59
791,1046197631,1.0742,-0.2847,0.3838,122.44,-17.50,-24.70
792,1046202630,1.0522,-0.2539,0.3672,122.38,-19.27,-22.56
793,1046207629,1.0347,-0.2290,0.3384,120.67,-20.73,-20.67
794,1046212627,1.0117,-0.1855,0.2974,118.23,-22.07,-18.23
795,1046217629,0.9966,-0.1621,0.2715,117.44,-22.56,-16.52
796,1046222627,0.9902,-0.1313,0.2397,117.93,-22.99,-14.21
797,1046227627,0.9917,-0.1079,0.2173,119.63,-23.11,-11.59
798,1046232627,0.9937,-0.1006,0.1899,121.46,-22.68,-8.48
799,1046237627,1.0054,-0.1021,0.1743,123.11,-22.13,-5.18
800,1046242627,1.0127,-0.1045,0.1543,123.72,-21.28,-1.65
801,1046247629,1.0088,-0.1021,0.1450,123.23,-20.49,1.65
802,1046252629,1.0020,-0.1025,0.1499,122.44,-19.70,4.63
803,1046257629,1.0098,-0.1040,0.1572,122.62,-19.33,7.62
804,1046262628,1.0034,-0.1021,0.1704,124.02,-19.27,10.43
805,1046267627,1.0015,-0.1050,0.1870,126.10,-19.57,13.29
806,1046272629,0.9995,-0.1128,0.2012,129.51,-20.30,15.67
807,1046277627,0.9907,-0.1265,0.1963,131.40,-21.52,17.93
808,1046282627,0.9805,-0.1211,0.1777,133.90,-23.17,20.12
809,1046287627,0.9819,-0.1260,0.1621,134.88,-25.12,22.07
810,1046292627,0.9834,-0.1235,0.1411,134.39,-27.20,24.02
811,1046297631,0.9805,-0.1328,0.1562,132.56,-29.09,25.55
812,1046302629,0.9893,-0.1460,0.1230,130.06,-30.91,27.13
813,1046307628,0.9858,-0.1675,0.0825,126.59,-32.38,28.90
814,1046312629,0.9819,-0.1978,0.0933,122.68,-33.66,30.67
815,1046317629,0.9785,-0.2271,0.0986,118.84,-34.39,32.07
816,1046322629,0.9834,-0.2598,0.0952,116.89,-34.45,33.35
817,1046327628,0.9849,-0.2852,0.0947,117.13,-34.09,34.57
818,1046332629,0.9673,-0.3008,0.1001,118.54,-33.17,35.91
819,1046337627,0.9546,-0.3120,0.0923,120.49,-32.38,37.13
820,1046342631,0.9346,-0.3115,0.0835,121.34,-31.59,38.23
821,1046347628,0.9131,-0.3174,0.0698,121.22,-30.98,39.09
822,1046352627,0.8901,-0.3242,0.0625,120.79,-30.55,39.88
823,1046357629,0.8584,-0.3369,0.0503,120.37,-30.79,40.43
824,1046362629,0.8320,-0.3452,0.0420,120.18,-31.34,40.67
825,1046367628,0.8037,-0.3618,0.0298,119.57,-32.32,40.55
826,1046372760,0.7979,-0.3901,0.0161,118.35,-33.72,40.24
827,1046377630,0.7974,-0.4146,0.0024,117.01,-34.57,39.76
828,1046382627,0.7881,-0.4307,0.0020,114.94,-35.43,39.09
829,1046387627,0.7861,-0.4487,0.0249,113.29,-35.73,38.11
830,1046392627,0.8052,-0.4619,0.0342,112.74,-35.30,37.38
831,1046397627,0.8140,-0.4663,0.0532,113.29,-34.82,36.95
832,1046402629,0.8237,-0.4673,0.0640,114.15,-33.84,37.01
833,1046407629,0.8218,-0.4673,0.0903,115.18,-32.68,37.32
834,1046412628,0.8188,-0.4512,0.0967,115.98,-31.59,37.93
835,1046417629,0.8252,-0.4341,0.1255,116.28,-31.10,38.54
836,1046422627,0.8315,-0.4072,0.1235,115.49,-31.04,39.63
837,1046427629,0.8276,-0.3687,0.1265,113.66,-31.89,40.79
838,1046432628,0.8228,-0.3335,0.1274,111.71,-33.11,42.20
839,1046437628,0.8320,-0.3101,0.1196,111.04,-34.39,43.78
840,1046442629,0.8335,-0.2900,0.1323,112.20,-35.67,45.43
841,1046447628,0.8281,-0.2837,0.1235,114.94,-37.26,47.07
842,1046452627,0.8247,-0.2866,0.1187,117.32,-38.54,49.02
843,1046457627,0.8159,-0.2944,0.1328,118.05,-40.06,50.79
844,1046462627,0.8115,-0.3306,0.1416,117.50,-41.59,52.56
845,1046467627,0.8130,-0.3657,0.1650,117.01,-43.29,53.90
846,1046472627,0.8296,-0.4165,0.1904,117.07,-45.12,54.94
847,1046477631,0.8159,-0.4741,0.2236,116.52,-47.56,56.04
848,1046483149,0.7905,-0.5107,0.2573,115.61,-49.39,56.46
849,1046487629,0.7686,-0.5371,0.2983,115.18,-51.10,56.46
850,1046492628,0.7588,-0.5620,0.3428,116.77,-53.11,56.46
851,1046497631,0.7578,-0.5635,0.3833,121.10,-55.61,56.59
852,1046502629,0.7637,-0.5283,0.4116,126.28,-58.23,57.32
853,1046507628,0.7617,-0.4829,0.4312,129.70,-60.91,58.17
854,1046512627,0.7720,-0.4136,0.4536,133.23,-64.51,60.12
855,1046517629,0.7832,-0.3022,0.4429,137.62,-69.33,63.35
856,1046522631,0.7808,-0.2231,0.4116,141.77,-73.60,67.20
857,1046527628,0.7798,-0.1763,0.3921,144.94,-77.50,71.04
858,1046532629,0.7637,-0.1338,0.3442,147.44,-82.68,77.74
859,1046537627,0.7397,-0.1509,0.3037,146.71,-87.26,83.35
860,1046542629,0.7061,-0.2017,0.2861,143.96,-91.34,88.41
861,1046547628,0.6748,-0.2588,0.2837,140.61,-95.49,93.41
862,1046552629,0.6357,-0.3281,0.2852,138.78,-99.15,97.38
863,1046557627,0.6030,-0.3818,0.2930,138.90,-101.71,100.00
864,1046562627,0.5654,-0.4414,0.3120,141.04,-105.18,102.74
865,1046567702,0.5293,-0.5020,0.3428,146.16,-109.45,105.12
866,1046572629,0.4941,-0.5254,0.3687,151.40,-113.11,106.71
867,1046577628,0.4839,-0.5073,0.4136,156.46,-117.13,107.99
868,1046582631,0.5029,-0.4736,0.4541,162.13,-121.34,109.57
869,1046587627,0.5366,-0.4087,0.4771,169.51,-125.49,112.62
870,1046592627,0.5586,-0.3647,0.4751,178.41,-129.70,117.38
871,1046597629,0.5439,-0.3120,0.4575,184.94,-134.39,123.96
872,1046602628,0.5186,-0.3008,0.4551,186.77,-139.33,131.28
873,1046607631,0.4771,-0.3335,0.4272,184.15,-144.09,139.02
874,1046612827,0.4150,-0.3940,0.3940,178.05,-149.09,146.77
875,1046617629,0.3315,-0.4707,0.3823,169.27,-153.84,153.35
876,1046622628,0.2451,-0.5571,0.3828,162.01,-158.29,158.60
877,1046627628,0.1689,-0.6367,0.3716,160.00,-162.13,162.87
878,1046632628,0.0728,-0.6714,0.3643,162.44,-165.67,166.46
879,1046637627,-0.0010,-0.6694,0.3608,165.18,-168.41,169.02
880,1046642631,-0.0444,-0.6094,0.3706,168.90,-171.89,172.93
881,1046647628,-0.0479,-0.5098,0.3740,174.09,-174.45,176.89
882,1046652627,-0.0278,-0.3574,0.3691,183.23,-176.52,182.26
883,1046657627,0.0010,-0.1792,0.3740,196.10,-177.87,190.06
884,1046662627,0.0361,-0.0278,0.3706,211.22,-178.29,201.10
885,1046667627,0.0439,0.0820,0.3511,226.10,-177.99,214.82
886,1046672627,-0.0049,0.1260,0.3418,238.23,-177.32,230.55
887,1046677627,-0.0845,0.0913,0.3442,246.83,-176.95,246.71
888,1046682629,-0.1855,0.0107,0.3442,251.40,-176.89,262.38
889,1046687627,-0.2954,-0.1328,0.3379,251.16,-177.32,277.20
890,1046692719,-0.4155,-0.2959,0.3604,244.57,-178.60,290.18
891,1046697630,-0.5713,-0.4790,0.3901,232.74,-180.49,299.88
892,1046702628,-0.7354,-0.6445,0.4053,220.24,-182.93,306.83
893,1046707627,-0.8701,-0.7773,0.4272,211.65,-185.67,311.65
894,1046712629,-0.9600,-0.8511,0.4365,208.84,-187.87,315.43
895,1046717629,-1.0137,-0.8242,0.4561,212.87,-188.96,319.39
896,1046722627,-1.0166,-0.8013,0.4155,222.50,-188.72,324.27
897,1046727629,-1.0093,-0.7285,0.3872,235.61,-187.13,331.16
898,1046732627,-1.0181,-0.6558,0.3193,246.16,-184.88,338.17
899,1046737627,-1.0479,-0.5527,0.2314,258.05,-180.24,350.73
900,1046742631,-1.0977,-0.4893,0.1860,263.05,-175.37,362.80
901,1046747652,-1.1660,-0.4731,0.1230,262.80,-170.00,375.49
902,1046752629,-1.3145,-0.4844,0.0757,258.41,-164.57,388.23
903,1046757629,-1.4517,-0.5210,0.0020,251.22,-159.02,400.18
904,1046762629,-1.5981,-0.5552,-0.0244,242.20,-152.87,410.91
905,1046767628,-1.7217,-0.6348,-0.0605,231.28,-146.28,420.61
906,1046772627,-1.8794,-0.6816,-0.0518,220.49,-139.15,428.72
907,1046777627,-2.0078,-0.7549,-0.0679,212.74,-131.77,435.24
908,1046782627,-2.1299,-0.8037,-0.0962,210.30,-123.66,440.61
909,1046787628,-2.2661,-0.8901,-0.1138,213.90,-114.88,444.45
910,1046792627,-2.3916,-0.9790,-0.1270,221.46,-104.88,447.13
911,1046797627,-2.5107,-1.0791,-0.1465,231.10,-94.09,448.35
912,1046802627,-2.6646,-1.2070,-0.1924,242.62,-81.95,448.29
913,1046807627,-2.7876,-1.3413,-0.2290,256.04,-69.45,446.65
914,1046812627,-2.8540,-1.4692,-0.2642,269.76,-56.10,443.29
915,1046817627,-2.9087,-1.5825,-0.3359,281.89,-41.46,438.05
916,1046822627,-2.9624,-1.7085,-0.4438,291.89,-25.49,431.16
917,1046827627,-2.9795,-1.8389,-0.6123,299.76,-8.17,422.38
918,1046832627,-2.9839,-1.9561,-0.8481,304.70,10.06,411.59
919,1046837629,-2.9951,-2.0815,-1.1147,305.24,29.88,398.72
920,1046842627,-3.0234,-2.2051,-1.4404,299.63,50.85,383.41
921,1046847627,-3.0986,-2.2847,-1.6426,285.00,73.48,365.37
922,1046852627,-3.2124,-2.4180,-1.9087,261.10,97.32,344.02
923,1046857631,-3.2729,-2.4956,-2.0752,230.85,121.95,319.27
924,1046862631,-3.3228,-2.5615,-2.2173,200.49,146.59,290.43
925,1046867628,-3.3374,-2.6323,-2.3179,175.37,171.46,258.05
926,1046872628,-3.3306,-2.6914,-2.3887,159.76,196.95,222.68
927,1046877629,-3.3721,-2.7417,-2.4482,156.65,223.41,184.82
928,1046882628,-3.4570,-2.7886,-2.4648,165.12,251.65,144.63
929,1046887631,-3.5327,-2.8125,-2.4565,183.54,281.71,102.32
930,1046892627,-3.6128,-2.8540,-2.4858,210.91,314.02,58.96
931,1046897627,-3.7930,-2.8955,-2.5386,244.70,348.05,14.27
932,1046902627,-4.0327,-2.9277,-2.6499,279.70,383.96,-31.77
933,1046907627,-4.3438,-2.9712,-2.7021,308.90,421.59,-79.39
934,1046912627,-4.6816,-3.0073,-2.7505,327.44,460.85,-128.35
935,1046917627,-5.0757,-3.0356,-2.7988,333.66,501.95,-177.80
936,1046922627,-5.6035,-3.0601,-2.8530,328.66,545.73,-226.95
937,1046927629,-6.2266,-3.0732,-2.9468,315.00,592.26,-275.12
938,1046932627,-6.8926,-3.0962,-3.0264,296.52,641.89,-321.04
939,1046937627,-7.6475,-3.1055,-3.0308,275.91,694.51,-364.88
940,1046942627,-8.5415,-3.1616,-2.9980,256.71,750.67,-406.59
941,1046947629,-9.5933,-3.2319,-2.9194,243.05,810.24,-446.04
942,1046952627,-10.6787,-3.2397,-2.7388,234.51,872.26,-483.54
943,1046957629,-11.8833,-3.3687,-2.6201,227.50,935.37,-518.60
944,1046962628,-13.0537,-3.5557,-2.2227,219.27,996.83,-550.85
945,1046967629,-14.1895,-3.7817,-1.8970,210.00,1053.54,-579.70
946,1046972627,-15.3706,-4.1440,-1.4160,195.55,1103.54,-605.55
947,1046977631,-15.9741,-4.6367,-0.6724,170.55,1145.24,-629.70
948,1046982628,-15.9995,-5.2290,0.0391,136.59,1177.62,-652.20
949,1046987629,-16.0000,-5.8457,0.8447,98.17,1199.70,-673.48
950,1046992627,-16.0000,-6.4648,1.7432,57.87,1211.22,-694.45
951,1046997629,-16.0000,-6.9761,2.6836,17.38,1212.44,-715.18
952,1047002628,-16.0000,-7.4551,3.7329,-21.34,1204.63,-736.10
953,1047007629,-16.0000,-7.8218,4.7500,-55.85,1188.23,-757.56
954,1047012627,-16.0000,-8.0957,5.7432,-86.77,1163.84,-780.06
955,1047017629,-16.0000,-8.1714,6.6045,-116.59,1132.80,-804.33
956,1047022628,-16.0000,-8.1543,7.2773,-151.95,1097.20,-830.67
957,1047027629,-16.0000,-8.0630,7.7446,-197.99,1059.70,-856.65
958,1047032627,-16.0000,-7.8291,8.0044,-254.82,1021.04,-881.71
959,1047037627,-16.0000,-7.7661,8.1123,-316.28,982.68,-904.57
960,1047042629,-16.0000,-7.7051,8.2866,-370.73,945.73,-923.60
961,1047047629,-16.0000,-7.5859,8.2051,-412.07,910.85,-938.84
962,1047052629,-16.0000,-7.4946,8.0693,-432.80,877.87,-950.79
963,1047057627,-16.0000,-7.4033,7.9092,-432.99,846.59,-960.98
964,1047062627,-16.0000,-7.2656,7.7676,-412.62,815.49,-970.79
965,1047067627,-16.0000,-7.0874,7.4932,-380.00,784.45,-981.52
966,1047072629,-16.0000,-6.9268,7.2969,-346.04,752.68,-993.66
967,1047077627,-15.9746,-6.7437,6.9800,-324.09,721.89,-1007.32
968,1047082907,-15.7192,-6.6323,6.7334,-317.13,693.78,-1021.10
969,1047087629,-15.4585,-6.5254,6.4702,-324.21,670.06,-1034.70
970,1047092937,-15.2471,-6.4663,6.2803,-332.50,651.77,-1047.26
971,1047097629,-15.0991,-6.3911,6.0317,-334.63,638.35,-1059.02
972,1047102629,-15.0210,-6.3467,5.7744,-322.62,627.99,-1070.12
973,1047107628,-14.8672,-6.1899,5.4604,-292.99,618.72,-1080.37
974,1047112631,-14.5913,-5.9644,5.2769,-246.46,606.65,-1090.30
975,1047117646,-14.3789,-5.6558,5.0815,-190.12,589.57,-1100.91
976,1047122630,-14.2290,-5.2383,5.0186,-134.09,566.83,-1111.22
977,1047127629,-13.9395,-4.7129,5.0020,-89.51,538.05,-1121.40
978,1047132629,-13.5757,-4.1763,5.0112,-57.80,504.09,-1129.21
979,1047137629,-13.1323,-3.6235,5.0684,-36.52,465.61,-1133.60
980,1047142629,-12.3379,-3.1064,4.9497,-20.67,423.17,-1133.48
981,1047147627,-12.7075,-2.7910,4.9502,-10.61,379.15,-1126.77
982,1047152627,-11.7368,-1.9136,4.6562,-5.37,333.90,-1116.40
983,1047157627,-11.3491,-1.4185,4.5786,1.40,290.30,-1102.74
984,1047162627,-10.9707,-0.9824,4.4507,15.12,248.23,-1084.70
985,1047167627,-10.4331,-0.5640,4.1362,33.66,206.83,-1062.44
986,1047172627,-9.8623,-0.1885,3.9009,51.52,165.61,-1035.67
987,1047177627,-9.2773,0.0962,3.7358,65.06,126.89,-1005.24
988,1047182627,-9.0684,0.1436,3.4248,71.34,90.73,-969.57
989,1047187627,-8.1670,0.7324,3.2998,76.34,58.23,-933.35
990,1047193408,-7.8232,1.1074,2.8237,77.07,23.35,-887.56
991,1047197633,-7.5903,1.4355,2.6787,73.84,2.44,-856.10
992,1047202628,-7.2773,1.7896,2.3535,69.45,-20.00,-815.91
993,1047207629,-6.9209,2.1235,2.0205,67.56,-40.85,-774.39
994,1047212627,-6.5557,2.4009,1.7578,70.73,-58.84,-731.52
995,1047217627,-6.2446,2.6182,1.4985,78.60,-74.15,-687.87
996,1047222631,-5.9829,2.8521,1.1646,87.68,-86.83,-643.72
997,1047227878,-5.6597,2.9634,0.9229,97.56,-97.01,-598.96
998,1047232629,-5.3467,3.0869,0.7632,106.95,-104.27,-553.66
999,1047237627,-5.0093,3.1846,0.6133,115.85,-108.72,-508.72
1000,1047242627,-4.7036,3.2378,0.4678,124.39,-110.55,-464.63
1001,1047247627,-4.4614,3.3013,0.3345,131.34,-110.12,-422.20
1002,1047252627,-4.2588,3.3481,0.1924,137.07,-107.80,-381.95
1003,1047257627,-3.9995,3.3628,0.0405,140.79,-104.33,-343.48
1004,1047262627,-3.5967,3.3667,-0.1426,143.05,-100.12,-307.07
1005,1047267629,-3.6011,3.1851,-0.3779,141.40,-95.67,-269.27
1006,1047272627,-3.0854,3.2642,-0.1987,141.52,-87.87,-233.72
1007,1047277627,-2.7788,3.1831,-0.4033,147.68,-77.87,-199.88
1008,1047282629,-2.4609,3.1523,-0.4438,159.21,-67.68,-167.20
1009,1047287631,-2.1895,3.0103,-0.4297,172.38,-56.65,-135.98
1010,1047292628,-1.8652,2.9072,-0.4536,180.98,-45.98,-105.73
1011,1047297661,-1.5698,2.8086,-0.4272,181.46,-35.18,-76.95
1012,1047302627,-1.2847,2.6685,-0.3784,173.29,-24.63,-49.70
1013,1047307629,-1.0083,2.5400,-0.3335,157.38,-14.51,-24.21
1014,1047312628,-0.7871,2.3887,-0.2598,135.18,-5.18,-0.30
1015,1047317631,-0.5938,2.2354,-0.1812,109.09,2.80,22.07
1016,1047322627,-0.4346,2.0840,-0.0913,81.59,9.51,42.93
1017,1047327627,-0.3130,1.9087,0.0342,55.30,15.12,62.44
1018,1047332627,-0.2451,1.7368,0.1704,32.99,19.21,80.12
1019,1047337630,-0.2134,1.5439,0.3271,16.04,21.52,95.30
1020,1047342627,-0.2061,1.3374,0.4907,5.49,22.50,107.80
1021,1047347627,-0.2236,1.1357,0.6323,1.04,21.59,117.50
1022,1047352627,-0.2661,0.9512,0.7490,1.71,19.02,124.39
1023,1047357627,-0.3003,0.7759,0.8286,6.10,15.18,128.84
1024,1047362629,-0.3403,0.6138,0.8921,12.74,10.30,130.98
1025,1047367627,-0.3828,0.4644,0.9453,19.39,4.51,130.98
1026,1047372627,-0.4189,0.3359,0.9717,23.96,-1.95,128.84
1027,1047377631,-0.4321,0.2144,0.9751,25.24,-8.96,124.94
1028,1047382628,-0.4546,0.1157,0.9761,22.62,-16.04,119.57
1029,1047387629,-0.4624,0.0273,0.9497,16.95,-22.62,113.05
1030,1047392628,-0.4624,-0.0430,0.9136,10.00,-28.90,105.79
1031,1047397629,-0.4556,-0.0815,0.8599,2.50,-34.39,97.93
1032,1047402629,-0.4365,-0.1123,0.8203,-5.24,-38.90,89.39
1033,1047407627,-0.3926,-0.1245,0.7788,-12.68,-42.07,81.59
1034,1047412629,-0.3516,-0.1284,0.7466,-18.90,-44.09,73.35
1035,1047417627,-0.3257,-0.1226,0.7217,-22.56,-44.94,65.43
1036,1047422627,-0.3003,-0.0952,0.6826,-22.50,-44.88,57.87
1037,1047427627,-0.2749,-0.0479,0.6641,-18.54,-43.90,51.22
1038,1047432627,-0.2622,0.0186,0.6411,-11.28,-41.89,45.30
1039,1047438022,-0.2803,0.0845,0.6289,-2.74,-39.51,39.94
1040,1047442628,-0.3013,0.1660,0.6323,5.79,-36.83,35.43
1041,1047447627,-0.3164,0.2466,0.6548,14.09,-34.15,31.46
1042,1047452627,-0.3232,0.3013,0.6528,22.62,-31.65,28.54
1043,1047457627,-0.3223,0.3413,0.6157,30.49,-29.33,26.65
1044,1047462627,-0.3589,0.3940,0.5864,35.61,-27.62,25.30
1045,1047467629,-0.3892,0.4336,0.5820,36.40,-25.91,23.66
1046,1047472627,-0.3877,0.4609,0.5854,33.60,-23.96,21.40
1047,1047477627,-0.3867,0.4873,0.5591,29.76,-21.40,18.60
1048,1047482627,-0.3877,0.5293,0.5234,26.89,-18.90,16.04
1049,1047487631,-0.3779,0.5913,0.5015,25.73,-16.16,13.78
1050,1047492627,-0.3662,0.6631,0.4805,25.98,-13.41,12.26
1051,1047497627,-0.3550,0.7402,0.4790,27.56,-10.43,11.46
1052,1047502627,-0.3418,0.8154,0.4854,30.18,-7.56,11.28
1053,1047507627,-0.3413,0.8809,0.4819,33.54,-5.00,11.89
1054,1047512627,-0.3472,0.9531,0.4868,36.71,-2.74,13.11
1055,1047517627,-0.3501,1.0034,0.4888,38.78,-0.91,14.94
1056,1047522627,-0.3833,1.0508,0.5137,39.45,-0.06,17.01
1057,1047527627,-0.4185,1.0884,0.5200,38.90,0.55,19.27
1058,1047532627,-0.4395,1.1143,0.5366,37.87,0.37,21.65
1059,1047537627,-0.4346,1.1216,0.5557,36.89,-0.30,24.39
1060,1047542627,-0.4170,1.1411,0.5898,36.16,-1.28,27.20
1061,1047547627,-0.4146,1.1606,0.6177,35.61,-2.44,29.94
1062,1047552627,-0.3975,1.1763,0.6221,35.55,-3.66,32.74
1063,1047557627,-0.3613,1.1938,0.6245,35.67,-4.76,35.61
1064,1047562627,-0.3154,1.1934,0.6221,35.18,-5.98,39.09
1065,1047567627,-0.2700,1.1938,0.6357,33.72,-7.26,42.50
1066,1047572627,-0.2300,1.1821,0.6445,31.16,-8.60,46.34
1067,1047577627,-0.1943,1.1709,0.6636,27.93,-10.18,49.82
1068,1047583265,-0.1611,1.1519,0.6851,23.90,-11.65,53.90
1069,1047587629,-0.1499,1.1357,0.7031,21.52,-12.80,56.34
1070,1047592629,-0.1372,1.1216,0.7056,19.45,-14.27,59.39
1071,1047597628,-0.1348,1.0991,0.7202,18.35,-15.91,62.38
1072,1047602627,-0.1348,1.0732,0.7305,18.41,-17.87,65.06
1073,1047607627,-0.1431,1.0371,0.7397,19.45,-19.94,67.44
1074,1047612627,-0.1572,0.9961,0.7471,20.98,-22.32,69.57
1075,1047617627,-0.2017,0.9614,0.7583,22.20,-24.94,70.91
1076,1047622627,-0.2451,0.9233,0.7573,22.68,-27.56,71.59
1077,1047627627,-0.2622,0.8940,0.7432,22.01,-30.00,71.83
1078,1047632627,-0.2896,0.8838,0.7236,19.94,-32.26,71.77
1079,1047637627,-0.3086,0.8828,0.6948,16.71,-34.09,71.52
1080,1047642627,-0.2998,0.8794,0.6597,13.66,-35.55,71.46
1081,1047647627,-0.2969,0.8711,0.6284,12.07,-36.34,71.34
1082,1047652627,-0.3057,0.8623,0.6001,12.44,-37.01,71.28
1083,1047657627,-0.3130,0.8613,0.5742,13.96,-36.95,70.98
1084,1047662627,-0.3013,0.8682,0.5483,16.16,-36.40,70.30
1085,1047667627,-0.2769,0.8657,0.5283,18.60,-35.37,69.94
1086,1047672631,-0.2432,0.8706,0.5029,21.28,-33.96,69.76
1087,1047677628,-0.2085,0.8750,0.4902,23.84,-32.32,69.88
1088,1047682627,-0.1719,0.8735,0.4839,25.67,-30.61,70.18
1089,1047687627,-0.1514,0.8696,0.4907,26.95,-28.72,70.73
1090,1047692628,-0.1362,0.8716,0.4863,28.05,-26.83,71.04
1091,1047697630,-0.1206,0.8657,0.4917,28.78,-25.00,71.52
1092,1047702627,-0.1108,0.8623,0.5039,29.33,-23.17,71.95
1093,1047707631,-0.1123,0.8569,0.5083,29.76,-21.40,72.74
1094,1047712628,-0.1079,0.8599,0.5122,29.76,-19.94,73.54
1095,1047717629,-0.1104,0.8604,0.5093,29.45,-18.23,74.57
1096,1047722628,-0.1206,0.8696,0.5044,28.60,-16.77,75.73
1097,1047727629,-0.1377,0.8833,0.4893,27.56,-15.30,77.13
1098,1047732627,-0.1606,0.8901,0.4736,26.95,-13.78,78.60
1099,1047737629,-0.1777,0.9082,0.4614,27.26,-12.07,79.88
1100,1047742629,-0.1904,0.9229,0.4639,29.15,-10.30,81.10
1101,1047747628,-0.1831,0.9346,0.4678,32.38,-8.35,82.20
1102,1047752627,-0.1660,0.9458,0.4702,36.52,-6.04,83.29
1103,1047757631,-0.1353,0.9565,0.4653,41.04,-3.72,84.27
1104,1047762627,-0.1011,0.9663,0.4648,45.24,-1.28,85.67
1105,1047767627,-0.0688,0.9717,0.4634,48.72,1.28,86.65
1106,1047772627,-0.0264,0.9751,0.4624,50.67,3.66,87.99
1107,1047777627,0.0005,0.9663,0.4639,51.28,5.73,90.00
1108,1047782628,0.0186,0.9717,0.4692,50.73,7.44,91.89
1109,1047787629,0.0146,0.9585,0.4819,49.15,8.96,93.60
1110,1047792627,0.0200,0.9556,0.4922,46.65,10.12,95.12
1111,1047797629,0.0210,0.9448,0.4990,43.48,11.22,96.65
1112,1047802772,-0.0015,0.9360,0.5137,40.06,12.01,98.11
1113,1047807630,-0.0200,0.9331,0.5034,36.52,12.56,99.57
1114,1047812628,-0.0254,0.9326,0.4937,33.29,13.05,101.04
1115,1047817629,-0.0415,0.9302,0.4736,30.37,13.41,102.99
1116,1047822629,-0.0488,0.9404,0.4619,27.74,13.54,105.12
1117,1047827629,-0.0469,0.9570,0.4575,26.04,13.54,107.26
1118,1047832629,-0.0312,0.9663,0.4644,25.67,13.84,109.21
1119,1047837629,-0.0127,0.9702,0.4771,27.07,14.27,110.85
1120,1047843003,0.0122,0.9678,0.4907,30.55,15.12,112.62
1121,1047847629,0.0273,0.9673,0.5020,32.93,15.73,113.78
1122,1047852628,0.0557,0.9619,0.5200,35.73,16.52,115.00
1123,1047857627,0.0698,0.9468,0.5454,37.56,17.38,116.16
1124,1047862627,0.0801,0.9414,0.5503,38.54,18.11,117.20
1125,1047867627,0.0811,0.9316,0.5566,38.60,18.66,117.99
1126,1047872627,0.0742,0.9292,0.5640,37.80,19.45,118.54
1127,1047877629,0.0752,0.9277,0.5640,35.98,19.82,119.15
1128,1047882629,0.0850,0.9209,0.5640,33.54,20.30,119.76
1129,1047887627,0.0938,0.9082,0.5669,30.24,20.73,120.79
1130,1047892629,0.0869,0.9014,0.5586,28.05,20.85,121.52
1131,1047897632,0.0835,0.8950,0.5474,25.61,20.98,122.93
1132,1047902628,0.0825,0.8965,0.5288,23.96,21.22,124.76
1133,1047907627,0.0894,0.8882,0.5181,22.93,21.22,126.77
1134,1047912627,0.0967,0.8857,0.5020,22.68,21.22,129.27
1135,1047917627,0.0986,0.8843,0.4971,22.74,21.22,132.01
1136,1047922629,0.1011,0.8770,0.5103,23.41,20.91,134.63
1137,1047927627,0.1064,0.8672,0.5259,24.57,20.24,136.89
1138,1047932627,0.1157,0.8608,0.5361,26.10,19.76,138.60
1139,1047937627,0.1289,0.8398,0.5522,28.11,19.09,140.00
1140,1047942627,0.1421,0.8271,0.5571,30.24,18.48,140.98
1141,1047947629,0.1523,0.8081,0.5625,32.13,18.05,141.65
1142,1047952629,0.1479,0.7896,0.5620,33.29,17.50,142.13
1143,1047957627,0.1475,0.7808,0.5669,33.66,17.26,142.38
1144,1047962627,0.1406,0.7651,0.5586,33.05,17.07,142.38
1145,1047968001,0.1445,0.7563,0.5513,31.22,16.89,142.32
1146,1047972631,0.1499,0.7500,0.5444,29.45,16.95,142.26
1147,1047977628,0.1665,0.7402,0.5400,27.01,17.13,142.44
1148,1047982629,0.1875,0.7354,0.5356,24.51,17.44,142.80
1149,1047987627,0.1997,0.7300,0.5264,22.20,17.74,143.41
1150,1047992629,0.2051,0.7256,0.5142,20.43,17.99,144.39
1151,1047997628,0.2124,0.7144,0.5044,19.57,18.05,145.67
1152,1048002781,0.2246,0.7061,0.4824,19.63,18.29,147.20
1153,1048007629,0.2290,0.6914,0.4722,20.43,18.11,148.90
1154,1048012629,0.2280,0.6797,0.4634,21.52,17.99,150.61
1155,1048017933,0.2207,0.6699,0.4702,22.20,17.68,152.20
1156,1048022629,0.2217,0.6621,0.4829,22.50,17.50,152.87
1157,1048027629,0.2144,0.6523,0.4907,22.32,16.83,153.17
1158,1048032629,0.2114,0.6382,0.5020,22.32,16.16,153.11
1159,1048037630,0.2236,0.6299,0.5073,22.80,15.30,152.62
1160,1048042629,0.2427,0.6270,0.5229,23.29,14.70,152.07
1161,1048047629,0.2651,0.6167,0.5361,24.39,13.84,151.34
1162,1048052627,0.2905,0.6084,0.5469,25.30,13.23,150.67
1163,1048057627,0.3135,0.5918,0.5527,25.73,12.38,150.18
1164,1048062627,0.3315,0.5864,0.5601,25.43,11.52,149.94
1165,1048067627,0.3394,0.5762,0.5537,23.66,10.61,149.63
1166,1048072628,0.3496,0.5752,0.5591,20.73,9.57,149.45
1167,1048077629,0.3550,0.5610,0.5591,16.52,8.60,149.02
1168,1048082629,0.3667,0.5605,0.5459,11.71,7.68,148.90
1169,1048087629,0.3843,0.5527,0.5356,6.95,6.95,148.72
1170,1048092628,0.4097,0.5464,0.5215,2.74,6.04,148.90
1171,1048097629,0.4375,0.5420,0.5015,-0.49,5.12,149.39
1172,1048102629,0.4546,0.5332,0.4863,-1.89,4.33,149.94
1173,1048107629,0.4722,0.5244,0.4795,-1.83,3.35,150.67
1174,1048112628,0.4858,0.5166,0.4648,-0.67,2.87,151.59
1175,1048117630,0.4956,0.5039,0.4468,1.40,1.83,152.44
1176,1048122630,0.4961,0.4946,0.4419,3.60,1.28,153.35
1177,1048127629,0.4956,0.4795,0.4219,5.79,0.49,154.27
1178,1048132629,0.5015,0.4653,0.4067,7.50,-0.24,155.37
1179,1048137629,0.4951,0.4531,0.3999,8.17,-0.73,156.59
1180,1048142627,0.4810,0.4409,0.3950,7.56,-1.46,157.68
1181,1048147627,0.4780,0.4224,0.3979,6.16,-2.07,158.78
1182,1048152629,0.4512,0.4146,0.4092,4.15,-2.56,159.57
1183,1048157627,0.4336,0.4004,0.4102,1.95,-2.80,160.18
1184,1048162817,0.4199,0.3882,0.4331,-0.12,-3.05,160.55
1185,1048167630,0.4287,0.3682,0.4492,-1.65,-3.23,160.85
1186,1048172628,0.4551,0.3594,0.4438,-2.99,-3.60,160.98
1187,1048177628,0.4780,0.3369,0.4541,-3.60,-3.90,161.34
1188,1048182629,0.5093,0.3164,0.4380,-4.09,-4.33,161.65
1189,1048187628,0.5234,0.2944,0.4360,-4.09,-4.88,162.07
1190,1048192629,0.5303,0.2744,0.4277,-4.63,-5.67,162.93
1191,1048197629,0.5435,0.2563,0.4214,-5.55,-6.71,163.72
1192,1048202629,0.5674,0.2393,0.4297,-6.89,-7.62,164.57
1193,1048207627,0.5796,0.2217,0.4282,-8.60,-8.84,165.43
1194,1048213341,0.5791,0.2007,0.4360,-10.24,-10.18,166.28
1195,1048217629,0.5581,0.1836,0.4336,-11.10,-11.04,166.71
1196,1048222629,0.5371,0.1680,0.4321,-11.89,-12.38,167.07
1197,1048227628,0.5068,0.1577,0.4360,-12.13,-13.60,167.26
1198,1048232629,0.4780,0.1416,0.4409,-12.32,-14.70,167.13
1199,1048237627,0.4546,0.1333,0.4492,-12.32,-15.49,166.77
1200,1048242808,0.4399,0.1147,0.4609,-12.26,-16.28,165.91
1201,1048247629,0.4316,0.1021,0.4692,-12.26,-16.52,165.30
1202,1048252629,0.4341,0.0801,0.4688,-12.32,-16.95,164.63
1203,1048257629,0.4536,0.0581,0.4683,-12.87,-17.01,164.15
1204,1048262628,0.4683,0.0410,0.4814,-14.27,-17.07,163.90
1205,1048267629,0.4810,0.0132,0.4858,-16.77,-17.07,163.54
1206,1048272629,0.4966,0.0010,0.4751,-20.12,-17.38,163.48
1207,1048277629,0.5171,-0.0054,0.4727,-23.54,-17.80,163.29
1208,1048282627,0.5293,-0.0098,0.4741,-26.77,-18.35,163.05
1209,1048287858,0.5493,-0.0229,0.4692,-29.33,-19.33,162.68
1210,1048292629,0.5605,-0.0298,0.4639,-30.00,-20.06,162.38
1211,1048297628,0.5708,-0.0342,0.4858,-29.45,-20.85,161.89
1212,1048302629,0.5879,-0.0396,0.4844,-27.56,-21.46,161.28
1213,1048307627,0.6060,-0.0557,0.4849,-24.39,-22.32,160.67
1214,1048312630,0.6367,-0.0596,0.4912,-20.00,-23.11,159.88
1215,1048317629,0.6558,-0.0688,0.4951,-15.30,-24.02,159.09
1216,1048322629,0.6924,-0.0781,0.5088,-10.55,-24.51,158.35
1217,1048327627,0.7285,-0.0981,0.4800,-6.16,-25.24,157.74
1218,1048332629,0.7793,-0.1235,0.4502,-3.17,-26.04,157.26
1219,1048337628,0.7915,-0.1040,0.4629,-1.65,-26.77,156.83
1220,1048342629,0.8154,-0.2148,0.5210,-0.30,-27.32,156.52
1221,1048347627,0.8657,-0.2119,0.4429,-0.61,-28.35,156.65
1222,1048352627,0.8823,-0.1914,0.4277,-2.68,-29.15,157.07
1223,1048357627,0.8735,-0.1860,0.4741,-6.28,-29.33,157.50
1224,1048362627,0.8750,-0.1992,0.4653,-11.22,-29.51,157.93
1225,1048367627,0.8848,-0.2129,0.4468,-16.65,-29.82,158.60
1226,1048372629,0.9155,-0.2266,0.4707,-21.65,-29.82,158.90
1227,1048377631,0.9487,-0.2295,0.5176,-25.06,-29.51,159.02
1228,1048382629,1.0137,-0.2319,0.5161,-26.16,-29.09,159.21
1229,1048387628,1.0864,-0.2441,0.5244,-24.82,-28.41,159.33
1230,1048392629,1.1689,-0.2578,0.5513,-21.04,-27.93,159.70
1231,1048397627,1.2441,-0.2720,0.5840,-15.37,-27.38,160.43
1232,1048402629,1.3188,-0.2866,0.5918,-8.60,-27.38,161.52
1233,1048407628,1.3643,-0.2866,0.6089,-1.46,-27.99,162.74
1234,1048412630,1.3994,-0.2778,0.6494,6.10,-29.15,163.78
1235,1048417678,1.4170,-0.2729,0.6924,14.45,-30.55,164.39
1236,1048422629,1.4355,-0.2739,0.7031,23.41,-32.32,164.76
1237,1048427628,1.4395,-0.2676,0.7036,32.07,-34.33,165.00
1238,1048432627,1.4272,-0.2544,0.6733,38.96,-36.77,165.24
1239,1048437674,1.4043,-0.2563,0.6411,43.72,-40.06,165.61
1240,1048443055,1.3779,-0.2539,0.6084,46.10,-44.39,165.98
1241,1048447629,1.3428,-0.2520,0.6030,46.22,-47.26,166.28
1242,1048452627,1.2856,-0.2471,0.6035,45.24,-51.16,166.71
1243,1048457629,1.2271,-0.2432,0.6011,43.78,-54.82,167.26
1244,1048462629,1.1758,-0.2334,0.5908,42.13,-57.99,167.74
1245,1048467629,1.1299,-0.2168,0.5781,40.98,-60.79,168.29
1246,1048472627,1.0913,-0.1997,0.5728,40.73,-63.05,168.72
1247,1048477629,1.0586,-0.1929,0.5630,41.65,-65.00,169.02
1248,1048482629,1.0396,-0.1968,0.5718,44.33,-66.83,168.84
1249,1048487628,1.0269,-0.2026,0.5903,49.21,-68.54,168.05
1250,1048492629,1.0229,-0.2231,0.6035,56.28,-70.61,166.89
1251,1048497627,1.0181,-0.2529,0.6318,65.30,-72.87,165.30
1252,1048502629,1.0190,-0.2705,0.6528,75.43,-75.37,163.60
1253,1048507628,1.0195,-0.2866,0.6562,85.67,-77.93,161.89
1254,1048512627,1.0107,-0.2891,0.6582,95.37,-80.55,160.49
1255,1048517629,1.0024,-0.2783,0.6333,103.78,-83.35,159.76
1256,1048522629,1.0010,-0.2671,0.5835,110.30,-86.34,159.70
1257,1048527629,1.0068,-0.2490,0.5117,114.88,-89.33,160.37
1258,1048532628,0.9917,-0.2310,0.4292,116.95,-93.05,162.13
1259,1048537629,0.9863,-0.2212,0.3667,116.52,-95.67,163.72
1260,1048542629,0.9653,-0.2036,0.3174,114.02,-99.51,166.71
1261,1048547629,0.9473,-0.2021,0.3071,111.52,-102.01,168.66
1262,1048552631,0.9048,-0.2026,0.2886,107.99,-104.45,170.98
1263,1048557628,0.8452,-0.1885,0.2471,104.63,-106.59,172.99
1264,1048562629,0.7812,-0.2051,0.2676,102.20,-108.11,174.51
1265,1048567627,0.7373,-0.2285,0.2578,100.98,-108.66,175.73
1266,1048572629,0.6943,-0.2539,0.2173,101.52,-109.21,176.71
1267,1048577628,0.6572,-0.2739,0.1953,103.66,-109.39,177.38
1268,1048582629,0.6313,-0.3018,0.1699,106.83,-109.21,177.87
1269,1048587627,0.6138,-0.3384,0.1431,110.55,-109.02,178.17
1270,1048592629,0.6016,-0.3872,0.1362,114.39,-108.66,178.60
1271,1048597628,0.6313,-0.3926,0.0952,118.29,-108.48,178.78
1272,1048602629,0.6250,-0.4424,0.0928,121.77,-108.48,178.60
1273,1048607627,0.5923,-0.4858,0.0859,124.45,-108.35,178.11
1274,1048612629,0.5498,-0.5444,0.0845,126.52,-108.54,177.13
1275,1048617628,0.5391,-0.5820,0.0942,126.95,-108.78,176.34
1276,1048622629,0.5063,-0.6250,0.1084,127.50,-109.15,174.33
1277,1048627629,0.4580,-0.6660,0.1016,127.13,-109.39,172.38
1278,1048632629,0.4062,-0.6987,0.1162,126.52,-109.57,170.00
1279,1048637628,0.4160,-0.7803,0.1738,125.61,-109.09,167.93
1280,1048642637,0.3901,-0.6768,-0.0308,125.85,-109.45,165.12
1281,1048647631,0.3809,-0.7383,0.0254,125.06,-109.94,162.20
1282,1048652629,0.3984,-0.7236,0.1333,122.74,-108.84,159.82
1283,1048657628,0.4165,-0.7197,0.0664,122.01,-107.80,157.93
1284,1048662629,0.4175,-0.7632,0.0317,123.84,-106.71,156.95
1285,1048667627,0.4380,-0.7832,0.0435,128.35,-105.37,156.71
1286,1048672629,0.5288,-0.8252,0.0532,133.48,-103.78,157.13
1287,1048677628,0.5645,-0.8511,0.0371,139.39,-101.59,158.23
1288,1048682666,0.5967,-0.8555,-0.0171,144.51,-99.15,159.45
1289,1048687627,0.6118,-0.8984,-0.0215,149.33,-96.10,160.85
1290,1048692629,0.5693,-0.9443,-0.0420,153.29,-92.62,162.32
1291,1048697628,0.5332,-1.0063,-0.0728,155.55,-88.66,163.72
1292,1048702629,0.5391,-1.0386,-0.0332,155.37,-84.88,164.02
1293,1048707627,0.5347,-1.0430,-0.0381,154.39,-80.79,164.27
1294,1048712629,0.4585,-1.0752,0.0371,151.40,-76.71,163.60
1295,1048717628,0.4263,-1.1177,0.0337,146.10,-73.23,162.62
1296,1048722630,0.3745,-1.1396,-0.1113,138.54,-69.70,160.91
1297,1048727627,0.3062,-1.1343,0.0918,129.09,-67.07,158.90
1298,1048732627,0.2676,-1.1284,0.1050,122.44,-65.06,157.07
1299,1048737629,0.2749,-1.1167,0.1187,116.22,-62.26,154.09
1300,1048742629,0.2148,-1.1724,0.1294,114.76,-60.67,152.01
1301,1048747628,0.2227,-1.1626,0.2212,115.49,-59.82,150.06
1302,1048752629,0.3438,-1.1479,0.3193,118.78,-58.72,148.35
1303,1048757627,0.2422,-1.1606,0.2300,121.46,-57.99,146.46
1304,1048763173,0.2437,-1.1851,0.1816,122.13,-57.87,144.33
1305,1048767629,0.2324,-1.2134,0.1694,120.91,-57.74,142.32
1306,1048772643,0.2632,-1.1938,0.3066,117.80,-57.50,140.18
1307,1048777629,0.3486,-1.2173,0.3960,115.37,-57.26,138.11
1308,1048782627,0.3857,-1.2437,0.4004,114.15,-56.89,136.16
1309,1048787631,0.3564,-1.2920,0.4619,114.21,-56.83,134.51
1310,1048792628,0.3613,-1.3257,0.4766,114.82,-57.38,132.93
1311,1048797629,0.4116,-1.4116,0.3975,115.30,-58.11,131.46
1312,1048802627,0.4468,-1.3267,0.3291,111.89,-59.33,129.57
1313,1048807629,0.4746,-1.3105,0.2275,104.39,-60.67,127.26
1314,1048812628,0.4609,-1.2827,0.2930,95.91,-62.38,125.30
1315,1048817629,0.4790,-1.2534,0.1621,88.05,-64.15,123.35
1316,1048822628,0.4863,-1.2881,0.1548,79.33,-66.46,121.28
1317,1048827629,0.4951,-1.2886,0.1099,70.85,-68.60,119.39
1318,1048832629,0.5044,-1.2744,0.0703,63.29,-71.10,117.32
1319,1048837629,0.4619,-1.2686,0.1455,56.46,-73.66,114.88
1320,1048842627,0.4126,-1.2886,0.1255,49.88,-76.04,112.01
1321,1048847631,0.3823,-1.3022,0.0889,42.62,-78.60,108.72
1322,1048852628,0.3398,-1.3154,0.1035,34.09,-81.10,104.94
1323,1048857629,0.3042,-1.3262,0.1079,23.90,-83.35,100.61
1324,1048862627,0.2910,-1.3340,0.0869,12.56,-85.37,96.22
1325,1048867629,0.3066,-1.3384,0.0928,0.91,-87.01,91.52
1326,1048872628,0.3335,-1.3462,0.0918,-10.18,-88.72,87.20
1327,1048877629,0.3647,-1.3418,0.0659,-19.70,-89.76,82.80
1328,1048882629,0.4097,-1.3291,0.0645,-27.26,-90.91,78.66
1329,1048887629,0.4438,-1.3174,0.0674,-32.13,-91.95,74.63
1330,1048892629,0.4741,-1.3096,0.0698,-34.09,-92.44,71.22
1331,1048897629,0.5122,-1.3076,0.0566,-32.62,-92.74,67.93
1332,1048902627,0.5430,-1.3169,0.0464,-28.72,-93.11,65.12
1333,1048907627,0.5684,-1.3198,0.0396,-22.56,-93.66,62.74
1334,1048912629,0.5830,-1.3228,0.0415,-15.00,-93.96,60.43
1335,1048917630,0.5962,-1.3281,0.0361,-6.65,-94.02,58.11
1336,1048922629,0.5879,-1.3291,0.0288,1.71,-94.15,55.73
1337,1048927628,0.5737,-1.3335,0.0166,9.51,-94.15,53.11
1338,1048932630,0.5659,-1.3389,0.0156,15.79,-93.96,50.43
1339,1048937627,0.5547,-1.3325,0.0259,19.94,-93.54,47.56
1340,1048942627,0.5366,-1.3232,0.0239,21.77,-93.35,44.51
1341,1048947762,0.5288,-1.3164,0.0254,21.04,-92.56,41.46
1342,1048952629,0.5083,-1.3149,0.0210,18.11,-91.52,37.99
1343,1048957630,0.4707,-1.3179,0.0176,12.93,-90.67,34.51
1344,1048962627,0.4238,-1.3306,0.0200,6.10,-89.88,30.67
1345,1048967628,0.3906,-1.3350,0.0244,-1.83,-88.90,26.59
1346,1048972629,0.3877,-1.3398,0.0391,-9.88,-87.87,22.56
1347,1048977629,0.3877,-1.3311,0.0415,-16.95,-86.46,18.35
1348,1048982629,0.3950,-1.3228,0.0454,-21.59,-85.18,14.15
1349,1048987629,0.3931,-1.3140,0.0532,-23.35,-83.72,10.12
1350,1048992629,0.3979,-1.2969,0.0537,-21.83,-82.32,6.52
1351,1048997628,0.4189,-1.2920,0.0508,-17.56,-81.04,3.29
1352,1049002629,0.4497,-1.2803,0.0693,-11.22,-79.70,0.55
1353,1049007629,0.4790,-1.2656,0.0747,-3.41,-78.29,-1.83
1354,1049012629,0.4917,-1.2563,0.0830,5.00,-76.83,-3.72
1355,1049017631,0.4956,-1.2446,0.0747,13.35,-75.37,-5.49
1356,1049022650,0.4922,-1.2363,0.0815,20.85,-73.96,-7.01
1357,1049027629,0.4897,-1.2310,0.0820,27.01,-72.68,-8.48
1358,1049032628,0.4766,-1.2192,0.0806,30.91,-71.65,-10.18
1359,1049037631,0.4531,-1.2158,0.0835,32.07,-70.55,-11.95
1360,1049042627,0.4399,-1.2017,0.0859,30.43,-69.45,-13.96
1361,1049047629,0.4233,-1.1851,0.0918,26.46,-68.54,-16.16
1362,1049052647,0.4067,-1.1714,0.0981,20.49,-67.38,-18.54
1363,1049057629,0.3940,-1.1504,0.0938,13.23,-66.71,-20.79
1364,1049062629,0.3809,-1.1309,0.1060,5.67,-65.85,-23.05
1365,1049067629,0.3789,-1.1016,0.1133,-1.71,-65.00,-25.06
1366,1049072628,0.3779,-1.0742,0.1206,-7.80,-64.33,-26.89
1367,1049077629,0.3867,-1.0483,0.1260,-12.07,-63.60,-28.41
1368,1049082627,0.4072,-1.0195,0.1362,-14.27,-63.11,-29.33
1369,1049087670,0.4248,-1.0000,0.1421,-14.02,-62.68,-29.88
1370,1049092629,0.4380,-0.9829,0.1523,-11.71,-62.20,-30.18
1371,1049097629,0.4453,-0.9756,0.1484,-7.93,-61.95,-30.12
1372,1049102629,0.4609,-0.9614,0.1523,-3.41,-61.83,-29.94
1373,1049107628,0.4590,-0.9561,0.1528,1.28,-61.83,-29.51
1374,1049112629,0.4487,-0.9497,0.1611,5.24,-61.89,-29.21
1375,1049117629,0.4312,-0.9478,0.1685,7.62,-62.01,-29.09
1376,1049122630,0.4229,-0.9497,0.1689,8.78,-62.07,-29.09
1377,1049127628,0.4209,-0.9468,0.1753,8.60,-62.20,-29.21
1378,1049132629,0.4004,-0.9448,0.1689,7.38,-62.26,-29.51
1379,1049137630,0.3760,-0.9434,0.1738,5.37,-62.13,-30.00
1380,1049142629,0.3618,-0.9326,0.1724,3.17,-62.01,-30.61
1381,1049147627,0.3657,-0.9233,0.1699,0.98,-62.13,-31.10
1382,1049152628,0.3735,-0.9141,0.1743,-0.98,-62.07,-31.71
1383,1049157630,0.3726,-0.9014,0.1714,-2.50,-61.83,-32.26
1384,1049162631,0.3696,-0.8911,0.1733,-3.41,-61.71,-32.74
1385,1049167629,0.3613,-0.8765,0.1807,-4.15,-61.34,-32.93
1386,1049172629,0.3599,-0.8584,0.1792,-4.21,-61.22,-33.17
1387,1049177628,0.3667,-0.8472,0.1777,-3.84,-61.10,-33.05
1388,1049182629,0.3740,-0.8330,0.1777,-2.68,-60.79,-32.68
1389,1049187627,0.3872,-0.8242,0.1846,-1.28,-60.55,-32.07
1390,1049192629,0.4048,-0.8203,0.1831,0.55,-60.55,-31.16
1391,1049197629,0.4224,-0.8193,0.1890,2.38,-60.43,-30.12
1392,1049202629,0.4336,-0.8208,0.1846,3.78,-60.43,-28.90
1393,1049207629,0.4316,-0.8145,0.1860,4.45,-60.30,-27.62
1394,1049212627,0.4321,-0.8149,0.1855,3.96,-60.24,-26.40
1395,1049217629,0.4258,-0.8184,0.1943,2.38,-60.00,-25.43
1396,1049222628,0.4209,-0.8164,0.1919,0.12,-59.88,-24.45
1397,1049227629,0.4146,-0.8169,0.1890,-2.32,-59.51,-23.60
1398,1049232628,0.4072,-0.8184,0.1880,-4.76,-59.15,-22.68
1399,1049237627,0.4004,-0.8179,0.1797,-6.52,-58.78,-21.89
1400,1049242631,0.3965,-0.8164,0.1831,-7.20,-58.35,-20.98
1401,1049247629,0.4009,-0.8086,0.1831,-6.89,-58.11,-20.12
1402,1049252628,0.4077,-0.8057,0.1777,-5.30,-57.74,-19.21
1403,1049257627,0.4219,-0.8071,0.1743,-3.17,-57.62,-17.99
1404,1049262629,0.4287,-0.7998,0.1768,-0.12,-57.38,-16.83
