# skilleye imu stream v1
# device=xiao_esp32c6 imu=mpu6050 addr=0x68
# rate_hz=200 accel_range_g=16 gyro_range_dps=2000 dlpf_hz=94
# units: accel in g, gyro in deg/s, t_us in microseconds since boot (monotonic)
# no shared clock with the camera -- tap the racket once before each take
# so both recordings share a spike to align on
seq,t_us,ax,ay,az,gx,gy,gz
0,1477622627,0.3569,-0.9116,0.1504,-23.29,-4.51,10.61
1,1477627629,0.3296,-0.9131,0.1558,-17.13,-4.15,12.38
2,1477632631,0.3066,-0.9121,0.1895,-11.89,-3.72,13.96
3,1477637628,0.2959,-0.9541,0.2290,-6.34,-3.29,15.18
4,1477642629,0.3091,-1.0811,0.2793,1.10,-2.99,15.67
5,1477647629,0.2773,-1.1426,0.2622,10.91,-3.05,14.63
6,1477652628,0.2456,-1.0972,0.2642,16.95,-2.87,12.62
7,1477657629,0.2651,-1.1001,0.2568,18.29,-2.07,10.30
8,1477662627,0.2695,-1.1133,0.1929,18.23,-1.46,7.38
9,1477667629,0.2642,-1.0840,0.1680,16.22,-1.04,3.96
10,1477672628,0.2612,-1.0430,0.1782,11.77,-0.18,0.43
11,1477677630,0.2642,-1.0039,0.1553,5.98,0.73,-2.99
12,1477682627,0.2593,-0.9624,0.1113,-0.37,1.10,-6.40
13,1477687627,0.2520,-0.9287,0.1255,-6.22,1.40,-9.45
14,1477692627,0.2324,-0.9033,0.1460,-10.85,1.65,-12.07
15,1477697627,0.2227,-0.8813,0.1436,-14.09,1.52,-14.57
16,1477702627,0.2144,-0.8623,0.1343,-15.85,1.16,-16.65
17,1477707627,0.2192,-0.8564,0.1514,-16.95,0.73,-18.54
18,1477712631,0.1904,-0.8604,0.1484,-17.93,0.24,-20.06
19,1477717627,0.1689,-0.8472,0.1479,-18.05,-0.30,-21.71
20,1477722631,0.1587,-0.8408,0.1509,-17.07,-1.04,-23.29
21,1477727628,0.1489,-0.8457,0.1733,-14.88,-2.01,-24.82
22,1477732629,0.1357,-0.8516,0.1938,-11.71,-2.99,-26.28
23,1477737628,0.1436,-0.8564,0.1812,-8.11,-3.96,-27.87
24,1477742631,0.1562,-0.8481,0.1724,-4.94,-5.06,-29.21
25,1477747628,0.1738,-0.8291,0.1699,-2.93,-6.16,-30.49
26,1477752629,0.1826,-0.8164,0.1445,-2.62,-7.26,-31.71
27,1477757629,0.1895,-0.7915,0.1069,-4.21,-8.35,-32.62
28,1477762629,0.2026,-0.7847,0.0918,-6.89,-9.45,-33.41
29,1477767628,0.1807,-0.7764,0.0503,-10.06,-10.30,-34.09
30,1477772629,0.1714,-0.7783,-0.1606,-15.18,-10.00,-35.12
31,1477777628,0.2832,-0.7803,-0.3184,-22.74,-8.17,-36.52
32,1477782629,0.3027,-0.8188,-0.3242,-26.46,-5.37,-38.17
33,1477787628,0.3662,-0.8726,-0.2305,-25.98,-2.01,-39.39
34,1477792630,0.3784,-0.9165,-0.1582,-21.83,0.85,-40.06
35,1477797629,0.3296,-0.9429,-0.0381,-15.37,2.93,-40.12
36,1477802627,0.2788,-0.9492,0.0698,-7.50,4.76,-39.27
37,1477807627,0.2700,-0.9653,0.1074,-1.04,6.22,-37.93
38,1477812627,0.2847,-0.9937,0.0889,2.62,7.44,-36.40
39,1477817627,0.3169,-1.0078,0.0610,4.09,8.96,-34.82
40,1477822627,0.3530,-0.9966,0.0327,4.39,10.73,-33.17
41,1477827630,0.3882,-0.9976,0.0156,4.21,12.80,-31.46
42,1477832629,0.4048,-1.0166,0.0122,4.70,14.88,-29.82
43,1477837628,0.4209,-1.0322,0.0225,5.55,16.46,-27.87
44,1477842629,0.4600,-1.0303,0.0396,7.20,17.44,-25.98
45,1477847997,0.4888,-1.0225,0.0654,8.84,17.99,-24.02
46,1477852629,0.5098,-1.0288,0.0947,10.06,17.99,-21.95
47,1477857630,0.5239,-1.0361,0.1265,10.85,17.99,-19.70
48,1477862629,0.5059,-0.9731,0.1616,11.22,17.80,-17.74
49,1477867628,0.4775,-0.9658,0.1807,10.79,17.93,-16.52
50,1477872629,0.4541,-1.0132,0.2036,9.76,17.99,-15.30
51,1477877628,0.4717,-1.0259,0.2153,8.84,18.66,-14.21
52,1477882629,0.4541,-1.0713,0.1758,7.62,19.09,-13.11
53,1477887629,0.4712,-1.0693,0.1636,6.10,18.96,-11.95
54,1477892629,0.4941,-1.0596,0.1641,4.09,18.66,-10.85
55,1477897630,0.5015,-1.0469,0.1768,1.59,18.29,-9.57
56,1477902629,0.4858,-1.0010,0.2163,-1.22,17.87,-8.17
57,1477907627,0.4614,-0.9565,0.1978,-3.11,17.80,-7.13
58,1477912629,0.4429,-0.9814,0.1641,-4.39,17.56,-5.79
59,1477917630,0.4395,-0.9365,0.1895,-4.94,17.32,-4.63
60,1477922629,0.4292,-0.8931,0.1685,-5.12,17.13,-3.35
61,1477927627,0.3950,-0.8511,0.1626,-4.63,17.01,-2.26
62,1477932630,0.3647,-0.8271,0.1528,-3.54,16.34,-1.10
63,1477937629,0.3896,-0.7705,0.0996,-2.56,15.73,0.43
64,1477942628,0.3970,-0.7607,0.0825,-3.17,14.94,2.01
65,1477947627,0.4072,-0.7959,0.0815,-3.84,13.72,4.09
66,1477952629,0.4263,-0.8311,0.1021,-4.63,12.38,6.04
67,1477957629,0.5005,-0.8228,0.1108,-5.00,11.16,7.80
68,1477962628,0.5059,-0.8247,0.1157,-7.74,10.61,9.21
69,1477967629,0.4614,-0.8623,0.1353,-12.01,10.24,10.49
70,1477972627,0.4233,-0.8960,0.1816,-16.52,10.06,11.52
71,1477977629,0.4141,-0.8936,0.1670,-21.28,9.76,12.38
72,1477982628,0.4858,-0.8491,0.2080,-28.96,9.88,12.87
73,1477987627,0.4448,-0.8545,0.2935,-36.16,10.18,13.05
74,1477992629,0.3252,-0.8496,0.2896,-42.62,10.61,13.35
75,1477997631,0.2988,-0.8525,0.2300,-50.30,10.55,13.66
76,1478002628,0.3066,-0.8555,0.2539,-57.01,10.43,13.66
77,1478007629,0.3306,-0.8604,0.3091,-61.46,10.18,13.29
78,1478012627,0.3975,-0.8701,0.3003,-64.09,9.45,12.87
79,1478017629,0.4424,-0.9180,0.2593,-65.85,7.87,12.38
80,1478022628,0.4946,-0.9302,0.2622,-67.93,5.85,12.32
81,1478027627,0.4849,-0.9180,0.2861,-71.34,3.29,12.13
82,1478032629,0.4790,-0.8984,0.2993,-75.73,0.67,12.20
83,1478037631,0.3989,-0.8633,0.2886,-81.40,-2.26,12.87
84,1478042627,0.4307,-0.8735,0.2891,-87.68,-5.12,13.96
85,1478047628,0.3257,-0.8955,0.3481,-91.71,-7.62,14.88
86,1478052629,0.2344,-0.9126,0.3750,-94.09,-9.51,16.04
87,1478057627,0.2378,-0.9033,0.3452,-92.80,-10.91,16.89
88,1478062631,0.2905,-0.9023,0.3413,-86.83,-12.01,17.26
89,1478067629,0.3394,-0.9189,0.3540,-75.85,-12.80,17.99
90,1478072629,0.3423,-0.9175,0.3960,-61.40,-13.29,19.09
91,1478077628,0.3096,-0.8740,0.3706,-44.02,-13.35,20.67
92,1478082629,0.3242,-0.8477,0.3252,-25.18,-13.17,22.68
93,1478087661,0.3081,-0.8354,0.2231,-7.13,-12.56,24.94
94,1478092628,0.3047,-0.7886,0.1265,7.38,-11.22,27.07
95,1478097629,0.3247,-0.7578,-0.0635,18.66,-9.63,28.90
96,1478102630,0.3262,-0.7407,-0.0166,28.54,-8.96,30.43
97,1478107628,0.3745,-0.7549,0.1641,36.40,-7.93,31.77
98,1478112628,0.4448,-0.8379,0.2441,39.57,-5.73,32.93
99,1478117631,0.4424,-0.9229,0.1987,38.48,-3.72,34.33
100,1478122629,0.4253,-0.9585,0.1938,34.70,-2.26,35.73
101,1478127627,0.3774,-0.9521,0.2280,29.02,-0.67,36.52
102,1478132631,0.3359,-0.9316,0.2222,22.38,1.04,36.46
103,1478137629,0.2964,-0.9580,0.1987,15.18,2.07,35.43
104,1478142627,0.2788,-1.0220,0.1865,9.02,2.68,34.21
105,1478147628,0.2842,-1.0688,0.1807,4.76,3.29,32.93
106,1478152631,0.3096,-1.0703,0.1792,2.01,3.90,31.46
107,1478157627,0.3252,-1.0522,0.1675,0.55,4.02,29.70
108,1478162629,0.3154,-1.0532,0.1592,-0.67,4.57,27.87
109,1478167628,0.2944,-1.0312,0.0684,-2.38,4.82,25.98
110,1478172629,0.2393,-1.0420,0.0269,-4.57,4.15,24.15
111,1478177629,0.1909,-0.9761,0.0781,-6.52,3.11,22.62
112,1478182628,0.1953,-0.8945,0.1079,-8.41,2.38,20.67
113,1478187630,0.2095,-0.8872,0.1021,-9.94,1.34,18.11
114,1478192628,0.2202,-0.8999,0.1016,-10.98,0.12,15.61
115,1478197630,0.2349,-0.8906,0.0972,-10.98,-0.79,13.60
116,1478202628,0.2373,-0.8691,0.0840,-9.57,-2.20,11.65
117,1478207628,0.2368,-0.8359,0.0591,-7.13,-3.90,10.06
118,1478212631,0.2437,-0.8120,0.0493,-4.33,-5.61,8.60
119,1478217629,0.2622,-0.7935,0.0522,-1.77,-7.20,7.20
120,1478222628,0.2896,-0.7930,0.0820,0.18,-8.66,5.73
121,1478227627,0.3110,-0.8154,0.1104,1.65,-9.94,4.45
122,1478232631,0.3271,-0.8433,0.1250,2.20,-10.79,3.35
123,1478237694,0.3125,-0.8740,0.1421,1.89,-11.46,2.50
124,1478242629,0.2910,-0.8955,0.1592,1.52,-11.77,1.65
125,1478247628,0.2734,-0.9067,0.1523,1.22,-12.01,0.98
126,1478252627,0.2749,-0.9155,0.1362,0.79,-12.38,0.37
127,1478257656,0.2798,-0.9258,0.1343,0.00,-12.44,0.06
128,1478262631,0.2827,-0.9204,0.1382,-1.10,-12.62,0.24
129,1478267754,0.2939,-0.9160,0.1377,-2.50,-12.74,0.85
130,1478272629,0.3174,-0.9023,0.1382,-3.78,-12.99,1.89
131,1478277630,0.3364,-0.8945,0.1401,-5.12,-13.60,3.17
132,1478282629,0.3501,-0.8887,0.1421,-5.85,-14.15,4.70
133,1478287836,0.3691,-0.8999,0.1519,-5.73,-14.94,6.16
134,1478292629,0.3804,-0.9146,0.1592,-5.37,-15.85,7.56
135,1478297630,0.3892,-0.9395,0.1650,-4.57,-16.77,8.90
136,1478302629,0.3779,-0.9565,0.1685,-3.78,-17.50,9.94
137,1478307628,0.3672,-0.9663,0.1836,-3.48,-18.11,10.91
138,1478312627,0.3872,-0.9746,0.1953,-3.72,-18.48,11.40
139,1478317660,0.3853,-0.9834,0.2026,-4.70,-18.66,11.77
140,1478322627,0.3589,-0.9893,0.2031,-5.55,-18.66,12.07
141,1478327631,0.3398,-0.9971,0.1855,-6.52,-18.17,12.26
142,1478332628,0.4268,-0.9927,0.1382,-8.29,-17.56,12.20
143,1478337627,0.3335,-1.0259,0.1343,-9.82,-17.20,11.83
144,1478342627,0.2729,-0.9888,0.1992,-8.54,-16.95,11.71
145,1478347627,0.3486,-0.9604,0.2178,-9.09,-16.59,11.28
146,1478352627,0.3662,-0.9868,0.2085,-9.39,-16.46,10.61
147,1478357631,0.3672,-1.0078,0.1987,-8.54,-16.28,9.57
148,1478362628,0.3398,-0.9917,0.1680,-8.29,-15.61,8.66
149,1478367629,0.3315,-0.9639,0.1309,-9.39,-14.63,7.62
150,1478372627,0.4106,-0.9565,0.1060,-11.10,-13.84,6.34
151,1478377629,0.2944,-1.0039,0.0732,-13.96,-12.93,5.06
152,1478382628,0.2021,-1.0239,0.1104,-16.71,-12.38,4.09
153,1478387629,0.2344,-0.9785,0.1133,-18.96,-11.34,2.93
154,1478392628,0.3164,-1.0166,0.0923,-20.61,-10.18,1.65
155,1478397627,0.3511,-0.9849,0.0532,-20.91,-9.02,0.85
156,1478402629,0.3701,-1.0176,0.0171,-21.16,-7.87,-0.67
157,1478407630,0.2803,-1.0249,-0.0273,-17.74,-7.74,-1.16
158,1478412629,0.3857,-0.9409,0.0347,-13.48,-7.68,-2.20
159,1478417628,0.4116,-0.9556,0.0894,-10.67,-7.26,-3.72
160,1478422629,0.3525,-0.9902,0.0728,-7.80,-6.16,-4.94
161,1478427630,0.3750,-0.9990,0.0586,-6.10,-4.63,-6.04
162,1478432629,0.3389,-0.9551,0.0610,-4.76,-2.56,-7.38
163,1478437646,0.2954,-0.9644,0.0410,-3.17,-0.79,-9.27
164,1478442627,0.3086,-0.9722,0.0264,-1.77,1.16,-10.85
165,1478447627,0.3481,-0.9731,0.0137,-0.79,2.80,-12.26
166,1478452627,0.3672,-0.9414,0.0137,0.24,3.90,-13.66
167,1478457627,0.4307,-0.8940,0.0034,2.07,5.00,-15.43
168,1478462627,0.2905,-0.9619,-0.0498,5.73,5.49,-17.26
169,1478467630,0.2261,-0.9731,-0.0684,8.29,5.49,-18.41
170,1478472629,0.3306,-1.0068,0.0010,8.48,5.55,-19.27
171,1478477629,0.3706,-1.0942,0.0215,8.66,5.43,-19.02
172,1478482629,0.3892,-1.1123,0.0083,9.76,5.30,-18.05
173,1478487628,0.4126,-1.0410,0.0083,11.22,5.24,-16.83
174,1478492629,0.4116,-0.9814,0.0024,12.80,5.18,-15.61
175,1478497628,0.3848,-0.9624,-0.0142,14.70,4.82,-14.63
176,1478502629,0.3848,-0.9497,-0.0151,17.07,4.09,-13.41
177,1478507628,0.3955,-0.9355,-0.0005,20.12,3.11,-12.01
178,1478512630,0.4053,-0.9048,-0.0010,23.60,1.95,-10.79
179,1478517627,0.4033,-0.8838,-0.0015,27.26,0.37,-9.70
180,1478522629,0.3911,-0.8721,0.0166,30.79,-1.34,-8.72
181,1478527631,0.3940,-0.8740,-0.0166,33.72,-3.17,-7.99
182,1478532628,0.2739,-1.0010,-0.1636,35.12,-6.59,-6.59
183,1478537655,0.2764,-0.9526,-0.0063,35.30,-11.04,-4.63
184,1478542627,0.3594,-0.8589,0.1475,35.67,-14.70,-3.11
185,1478547891,0.3003,-0.7627,0.1919,35.24,-16.95,-2.26
186,1478552629,0.2666,-0.7422,0.1753,33.29,-18.96,-1.77
187,1478557627,0.2383,-0.6885,0.1362,31.10,-20.85,-1.59
188,1478562631,0.2690,-0.6777,0.1553,29.76,-22.93,-1.46
189,1478567629,0.2793,-0.6895,0.1533,29.09,-24.57,-1.28
190,1478572627,0.2939,-0.7275,0.1133,27.62,-26.16,-0.91
191,1478577631,0.3081,-0.7407,0.1089,26.16,-27.68,-0.30
192,1478582627,0.3330,-0.7500,0.1084,24.63,-28.78,0.43
193,1478587629,0.3540,-0.7520,0.0801,23.35,-29.76,0.85
194,1478592627,0.3608,-0.7808,0.0532,22.62,-30.12,1.10
195,1478597631,0.3623,-0.8315,0.0342,22.68,-30.43,1.34
196,1478602627,0.3716,-0.8750,0.0400,23.41,-30.43,1.83
197,1478607627,0.4106,-0.9160,0.0635,24.63,-29.76,2.20
198,1478612627,0.4297,-0.9385,0.0898,26.10,-28.84,2.56
199,1478617627,0.4185,-0.9604,0.1172,27.38,-27.74,2.68
200,1478622627,0.3921,-0.9858,0.1240,27.87,-26.34,2.50
201,1478627627,0.3472,-1.0015,0.1436,25.91,-24.57,2.38
202,1478632769,0.3369,-0.9951,0.2119,22.20,-22.07,1.83
203,1478637628,0.3545,-0.9858,0.1509,18.48,-19.33,1.16
204,1478642631,0.3525,-0.9873,0.0942,16.46,-17.20,0.37
205,1478647629,0.3369,-0.9946,0.1465,15.61,-14.39,-0.24
206,1478652628,0.3340,-0.9976,0.1582,15.55,-11.59,-0.98
207,1478657629,0.3467,-0.9951,0.0894,15.43,-8.84,-1.65
208,1478662627,0.3525,-0.9785,0.0557,15.73,-6.34,-2.26
209,1478667627,0.3442,-0.9771,0.0938,16.40,-3.66,-2.93
210,1478672627,0.3330,-0.9839,0.1523,17.44,-0.85,-3.54
211,1478677627,0.2754,-0.9702,0.1206,18.35,1.83,-3.66
212,1478682631,0.3047,-1.0015,0.0859,20.06,4.09,-3.54
213,1478687627,0.3193,-0.9839,0.0986,22.20,6.65,-3.29
214,1478692628,0.3076,-0.9629,0.0996,24.63,9.27,-3.05
215,1478697630,0.3208,-0.9561,0.0703,26.65,11.52,-2.68
216,1478702628,0.3521,-0.9624,0.0728,28.72,13.60,-2.07
217,1478707629,0.3784,-0.9795,0.0908,30.98,15.49,-1.28
218,1478712627,0.3857,-0.9990,0.1299,34.09,16.77,-0.06
219,1478717627,0.3911,-1.0166,0.1440,37.26,17.74,1.22
220,1478722631,0.3916,-1.0371,0.1338,39.88,18.35,2.20
221,1478727628,0.4097,-1.0640,0.1455,42.26,18.66,2.99
222,1478732629,0.4229,-1.0869,0.1499,44.09,18.72,3.78
223,1478737631,0.4453,-1.0859,0.1416,44.76,18.66,4.51
224,1478742628,0.4531,-1.0850,0.1265,44.51,18.17,5.06
225,1478747627,0.4448,-1.0923,0.1284,43.23,17.56,5.37
226,1478752627,0.4390,-1.1167,0.1382,40.43,16.52,5.61
227,1478757631,0.4570,-1.1377,0.1294,36.16,15.61,5.49
228,1478762627,0.4731,-1.1367,0.1133,30.55,14.39,4.94
229,1478767627,0.5034,-1.1221,0.1021,23.72,12.87,4.02
230,1478772627,0.4600,-1.1343,0.1216,15.91,11.22,2.80
231,1478777631,0.4238,-1.1406,0.1675,7.87,9.39,1.52
232,1478782628,0.4243,-1.1333,0.1855,-0.06,7.68,0.18
233,1478787629,0.4268,-1.1460,0.1948,-7.68,5.61,-1.34
234,1478792627,0.4458,-1.1660,0.2192,-14.70,3.66,-2.87
235,1478797629,0.4429,-1.1895,0.2368,-20.06,1.65,-4.45
236,1478802628,0.4580,-1.2100,0.2373,-23.90,-0.43,-6.16
237,1478807627,0.4546,-1.2285,0.2222,-26.59,-2.07,-8.35
238,1478812629,0.4702,-1.2402,0.2007,-28.96,-3.23,-11.16
239,1478817627,0.4561,-1.2798,0.1851,-31.46,-3.84,-14.27
240,1478822627,0.4692,-1.3105,0.1631,-34.02,-4.02,-17.32
241,1478827627,0.4849,-1.3315,0.1011,-37.32,-3.11,-20.73
242,1478832627,0.5137,-1.3452,-0.0132,-41.40,-2.68,-24.63
243,1478837627,0.4995,-1.3516,-0.0298,-41.71,-1.59,-29.57
244,1478842671,0.4829,-1.3550,0.0713,-38.78,-0.67,-32.62
245,1478847628,0.4766,-1.3540,0.0024,-31.95,0.24,-36.52
246,1478852627,0.4897,-1.3647,-0.0425,-23.23,0.85,-40.37
247,1478857630,0.4795,-1.3921,0.0298,-13.29,2.01,-44.45
248,1478862629,0.4512,-1.4126,0.0708,-3.05,3.48,-48.54
249,1478867628,0.4688,-1.4229,0.0513,6.52,5.49,-52.74
250,1478872627,0.3960,-1.4292,0.0352,14.57,7.50,-57.20
251,1478877630,0.4512,-1.4180,0.0015,19.27,9.63,-62.07
252,1478882629,0.4619,-1.4409,0.0454,23.41,11.89,-67.07
253,1478887628,0.4624,-1.4551,0.0513,27.99,13.96,-72.13
254,1478892629,0.4639,-1.4604,0.0176,33.35,16.16,-77.26
255,1478897628,0.4556,-1.4717,0.0420,39.45,18.11,-82.62
256,1478902629,0.4600,-1.4785,0.0957,46.04,19.70,-87.99
257,1478907628,0.4736,-1.4785,0.0938,53.17,21.28,-93.48
258,1478912630,0.4927,-1.4805,0.0845,60.43,22.68,-98.96
259,1478917629,0.5034,-1.4839,0.1216,67.01,23.84,-104.27
260,1478922628,0.5220,-1.4785,0.1714,72.80,24.94,-109.51
261,1478927627,0.5161,-1.4712,0.1851,77.74,26.16,-114.57
262,1478932627,0.5259,-1.4346,0.1914,82.38,27.13,-119.45
263,1478937627,0.5522,-1.4072,0.2129,87.20,28.05,-124.27
264,1478942631,0.5610,-1.3823,0.2212,91.83,28.84,-128.78
265,1478947627,0.5605,-1.3516,0.2246,95.49,29.33,-133.17
266,1478952627,0.5698,-1.3208,0.2568,98.05,30.06,-138.35
267,1478957628,0.5752,-1.2964,0.2969,98.41,30.55,-141.65
268,1478962629,0.5566,-1.2578,0.3145,97.62,31.10,-145.67
269,1478967629,0.5679,-1.2129,0.3140,95.98,31.65,-149.33
270,1478972629,0.5854,-1.1582,0.3262,94.27,31.83,-152.68
271,1478977627,0.5781,-1.1011,0.3530,92.50,31.95,-155.49
272,1478982631,0.5654,-1.0532,0.3472,90.91,31.77,-158.05
273,1478987629,0.5674,-0.9985,0.3452,89.51,31.46,-160.24
274,1478992627,0.5771,-0.9458,0.3584,87.93,30.98,-162.07
275,1478997837,0.5732,-0.9062,0.3730,85.37,30.61,-163.66
276,1479002629,0.5591,-0.8784,0.3779,81.34,30.12,-165.00
277,1479007630,0.5400,-0.8394,0.3975,75.85,29.94,-166.28
278,1479012629,0.5229,-0.7993,0.4155,69.76,29.76,-167.26
279,1479017631,0.5220,-0.7632,0.4180,63.96,29.57,-167.93
280,1479022628,0.5259,-0.7183,0.4155,58.84,29.51,-168.41
281,1479027627,0.5117,-0.6714,0.4277,54.94,28.90,-168.48
282,1479032629,0.4790,-0.6333,0.4482,52.32,28.23,-168.29
283,1479037627,0.4551,-0.6055,0.4590,51.22,27.32,-167.68
284,1479042631,0.4692,-0.5469,0.4561,52.32,26.10,-166.52
285,1479047628,0.4507,-0.4849,0.4590,55.79,24.33,-165.18
286,1479052631,0.4194,-0.4404,0.4497,60.98,22.13,-163.48
287,1479057628,0.4116,-0.3867,0.4487,66.52,19.33,-161.34
288,1479062629,0.3940,-0.3433,0.4458,71.65,16.22,-159.09
289,1479067628,0.4116,-0.2817,0.4575,75.43,13.17,-156.52
290,1479072627,0.3818,-0.2402,0.4648,77.74,10.18,-153.90
291,1479077627,0.3535,-0.1851,0.4619,77.99,7.20,-150.79
292,1479082629,0.3574,-0.1221,0.4585,76.52,4.21,-147.62
293,1479087628,0.3306,-0.0757,0.4561,73.72,1.40,-143.96
294,1479092657,0.3145,-0.0312,0.4517,69.57,-1.34,-139.82
295,1479097629,0.3320,0.0317,0.4424,64.51,-3.90,-135.18
296,1479102629,0.3203,0.0737,0.4463,58.29,-6.46,-130.06
297,1479107630,0.3081,0.1196,0.4404,51.16,-8.90,-124.27
298,1479112629,0.3218,0.1787,0.4414,43.72,-11.28,-118.17
299,1479117628,0.2944,0.2153,0.4380,36.22,-13.60,-111.65
300,1479122630,0.2959,0.2700,0.4297,29.15,-15.98,-104.33
301,1479127627,0.2812,0.3257,0.4111,22.80,-18.29,-96.71
302,1479132627,0.2759,0.3691,0.4028,17.01,-20.61,-88.54
303,1479137627,0.2769,0.4258,0.3975,11.89,-22.99,-79.82
304,1479142889,0.2671,0.4663,0.3823,7.13,-25.30,-70.61
305,1479147678,0.2441,0.4922,0.3687,2.99,-27.56,-60.91
306,1479152628,0.2388,0.5298,0.3633,-0.67,-29.70,-50.67
307,1479157627,0.2080,0.5791,0.3584,-3.41,-31.71,-39.94
308,1479162630,0.1890,0.6011,0.3423,-5.43,-33.60,-28.78
309,1479167629,0.1729,0.6289,0.3296,-6.40,-35.37,-17.01
310,1479172629,0.1616,0.6777,0.3184,-6.04,-36.95,-4.82
311,1479177742,0.1821,0.6895,0.3003,-4.76,-38.60,7.56
312,1479182630,0.1636,0.7002,0.2734,-3.48,-40.37,20.79
313,1479187628,0.1758,0.6943,0.2681,-2.32,-41.95,34.21
314,1479192629,0.1758,0.6953,0.2769,-1.10,-43.48,48.17
315,1479197630,0.2339,0.6729,0.2544,-0.98,-44.70,62.26
316,1479202627,0.2227,0.6406,0.2363,-1.89,-46.16,76.89
317,1479207628,0.2446,0.6138,0.2368,-3.05,-47.01,91.77
318,1479212629,0.2466,0.5986,0.2334,-4.88,-47.74,106.71
319,1479217628,0.2993,0.5601,0.1895,-6.34,-48.54,121.65
320,1479222630,0.2925,0.5186,0.1733,-7.50,-49.33,136.65
321,1479227629,0.3193,0.4722,0.1812,-8.48,-49.94,151.89
322,1479232627,0.3452,0.4214,0.1855,-8.96,-50.30,167.07
323,1479237627,0.3682,0.3579,0.1821,-8.35,-50.24,182.56
324,1479242627,0.4038,0.2905,0.1860,-5.91,-49.94,198.17
325,1479247627,0.4326,0.2012,0.1855,-1.46,-49.70,214.09
326,1479252627,0.4932,0.1069,0.1665,4.76,-49.33,230.06
327,1479257673,0.5571,0.0029,0.1504,10.98,-48.78,245.79
328,1479262627,0.5620,-0.1108,0.1616,15.61,-48.11,260.67
329,1479267632,0.5728,-0.2368,0.1733,17.38,-47.13,274.57
330,1479272628,0.6006,-0.3662,0.1958,15.61,-45.73,286.65
331,1479277629,0.6064,-0.4951,0.2192,9.57,-44.09,296.89
332,1479282627,1.9839,-6.3052,-0.2744,-4.70,-42.38,296.52
333,1479287629,2.2803,-9.8721,-1.1182,-34.45,-28.60,158.05
334,1479292628,2.4497,-2.9751,-0.6870,-87.93,-31.28,51.40
335,1479297627,1.1904,-0.5771,-0.5698,-143.72,-24.63,-6.04
336,1479302631,1.2251,-0.5947,-0.7490,-153.78,-5.98,-35.73
337,1479307629,1.1743,-1.6514,0.1831,-125.73,-3.48,-45.00
338,1479312628,1.0010,-2.2744,0.7783,-96.59,-9.15,-40.12
339,1479317629,1.0146,-2.0371,0.2549,-83.78,-8.23,-31.59
340,1479322627,0.9844,-1.2217,0.1353,-78.05,-2.68,-24.15
341,1479327631,0.9712,-0.4653,0.6289,-71.46,-0.61,-18.54
342,1479332627,0.9561,-0.2793,0.5088,-60.73,0.79,-13.48
343,1479337630,0.9272,-0.6270,0.0039,-45.91,5.43,-8.29
344,1479342628,0.8823,-1.1084,0.1226,-29.27,8.66,-3.48
345,1479347631,0.8159,-1.3970,0.4663,-12.99,8.66,0.12
346,1479352627,0.7656,-1.3735,0.2891,2.20,10.24,1.77
347,1479357629,0.7446,-1.1543,0.1309,16.46,14.27,1.10
348,1479362628,0.7256,-0.9951,0.3950,29.15,16.71,-1.34
349,1479367629,0.6831,-1.0259,0.5049,40.12,17.80,-5.30
350,1479372627,0.6636,-1.1992,0.2964,49.94,20.37,-10.24
351,1479377629,0.6323,-1.3628,0.2905,59.21,22.93,-16.77
352,1479382628,0.6030,-1.4312,0.4819,68.17,23.54,-24.63
353,1479387629,0.5430,-1.3657,0.4263,76.10,23.48,-34.21
354,1479392627,0.4824,-1.2441,0.2974,82.62,24.57,-45.37
355,1479397958,0.4370,-1.2144,0.3242,87.26,24.82,-60.00
356,1479402629,0.4243,-1.1152,0.4980,88.54,24.02,-70.30
357,1479407629,0.4106,-1.1030,0.4302,87.74,23.35,-82.87
358,1479412629,0.3945,-1.0786,0.3779,85.06,23.29,-95.00
359,1479417628,0.3809,-1.0034,0.4756,80.73,22.56,-106.28
360,1479422629,0.3779,-0.8696,0.4814,75.67,21.34,-116.65
361,1479427631,0.3657,-0.7339,0.3896,70.43,20.49,-125.67
362,1479432628,0.3403,-0.6230,0.3940,64.82,19.57,-133.11
363,1479437627,0.3252,-0.5269,0.4609,59.02,18.29,-138.72
364,1479442627,0.3262,-0.4258,0.4287,53.78,16.83,-142.50
365,1479447627,0.3262,-0.3198,0.3892,49.94,16.04,-144.21
366,1479452627,0.3247,-0.1992,0.4048,47.74,14.94,-143.78
367,1479458087,0.3208,-0.0513,0.4136,47.20,13.60,-140.49
368,1479462629,0.3296,0.0776,0.3853,48.54,12.74,-136.52
369,1479467630,0.3608,0.2256,0.3682,51.89,12.07,-129.33
370,1479472629,0.3667,0.3721,0.3745,56.95,11.22,-119.70
371,1479477627,0.3501,0.5142,0.3394,63.17,10.49,-107.68
372,1479482627,0.3550,0.6709,0.2759,69.33,9.82,-93.23
373,1479487627,0.3477,0.7905,0.2520,75.00,9.27,-76.46
374,1479492630,0.3335,0.9121,0.2437,78.78,9.15,-57.38
375,1479497629,0.3501,1.0342,0.1899,80.30,9.33,-36.34
376,1479502628,0.3501,1.1333,0.1260,79.27,9.94,-13.72
377,1479507629,0.3174,1.2153,0.0752,75.49,10.67,10.24
378,1479512627,0.3354,1.2588,0.0186,67.56,11.40,34.76
379,1479517630,0.3218,1.2827,-0.0288,55.24,12.38,59.57
380,1479522628,0.3184,1.2471,-0.0488,38.35,13.23,83.84
381,1479527629,0.1904,1.2314,-0.0337,16.59,14.57,107.68
382,1479532627,0.2593,1.1650,-0.0356,-7.87,15.85,130.24
383,1479537627,0.2373,1.0430,-0.0684,-31.59,16.77,152.44
384,1479542627,0.2031,0.9141,-0.0459,-52.74,16.83,173.78
385,1479547631,0.1899,0.7778,0.0122,-70.18,16.89,194.39
386,1479552628,0.1797,0.6406,0.0547,-83.11,16.40,214.09
387,1479557629,0.1748,0.4971,0.0732,-91.77,15.67,232.38
388,1479562627,0.1738,0.3511,0.1299,-96.83,14.63,249.57
389,1479567627,0.1709,0.1943,0.2075,-99.09,13.35,265.43
390,1479572627,0.1602,0.0293,0.2495,-98.72,12.38,280.06
391,1479577627,4.1606,-11.6250,1.5835,-84.09,1.65,254.39
392,1479582627,1.1675,-13.2583,1.1079,-2.07,21.65,98.48
393,1479587685,1.5605,-1.9380,-1.6045,-35.85,49.45,-7.68
394,1479593106,1.1704,-0.7080,-0.8579,-12.93,37.74,-36.52
395,1479597631,1.1724,0.7925,1.3887,33.60,16.10,-47.93
396,1479602628,0.9775,-0.6509,-0.0762,73.35,22.68,-36.16
397,1479607629,1.0137,-1.6841,-0.3979,88.35,37.93,-18.54
398,1479612627,1.0454,-1.6567,1.0010,75.61,31.34,-1.28
399,1479617627,1.0405,-0.8301,0.9111,54.45,29.33,12.38
400,1479622630,1.0298,0.0244,-0.0903,39.51,38.17,21.77
401,1479627629,0.9453,0.3223,0.2627,27.32,43.60,29.51
402,1479632628,0.8618,0.0156,0.8120,11.52,42.20,36.95
403,1479637631,0.8135,-0.4946,0.1396,-7.80,44.94,44.33
404,1479642627,0.7886,-0.8394,-0.2456,-27.68,51.34,50.67
405,1479647629,0.7461,-0.8496,0.3789,-46.16,52.07,55.37
406,1479652628,0.6855,-0.6411,0.5459,-62.38,50.73,58.11
407,1479657627,0.6421,-0.4478,0.0254,-75.91,54.02,59.09
408,1479662629,0.6094,-0.4282,0.0610,-86.71,57.87,59.21
409,1479667627,0.5962,-0.5845,0.4854,-95.24,57.50,59.21
410,1479672630,0.6021,-0.7837,0.3125,-101.46,56.77,58.60
411,1479677628,0.6201,-0.8960,-0.0444,-105.55,58.84,57.44
412,1479682627,0.6172,-0.8765,0.1338,-108.11,59.39,55.61
413,1479687631,0.5972,-0.7866,0.3325,-110.55,57.20,52.93
414,1479692628,0.6177,-0.7148,0.0742,-113.78,56.77,49.51
415,1479697631,0.6362,-0.7173,-0.0605,-118.84,58.17,45.91
416,1479702627,0.6362,-0.7754,0.1724,-125.73,57.93,42.32
417,1479707629,0.6294,-0.8296,0.2197,-134.63,57.07,38.78
418,1479712627,0.6455,-0.8838,-0.0044,-145.18,57.99,35.00
419,1479717627,0.6128,-0.8843,-0.0127,-157.20,60.00,31.52
420,1479722628,0.5869,-0.8486,0.1680,-170.18,60.43,28.17
421,1479727674,0.5693,-0.8394,0.1089,-183.96,60.91,24.94
422,1479732631,0.5400,-0.8682,-0.0415,-197.99,62.99,21.95
423,1479737627,0.5103,-0.9023,0.0557,-211.65,64.57,19.63
424,1479742627,0.5371,-0.8882,0.1426,-226.04,65.91,17.26
425,1479747628,0.5850,-0.9014,0.0913,-234.39,66.04,15.98
426,1479752628,0.5869,-0.9058,-0.0010,-242.99,67.26,14.21
427,1479757631,0.5449,-0.9043,0.1035,-250.00,67.01,12.93
428,1479762627,0.5220,-0.8804,0.1621,-255.55,65.43,11.34
429,1479767627,0.5391,-0.8540,0.0601,-259.94,64.09,9.70
430,1479772628,0.5684,-0.8516,0.0596,-263.54,62.93,7.74
431,1479777627,0.5854,-0.8672,0.1797,-266.34,60.61,5.55
432,1479782627,0.6040,-0.8809,0.1831,-268.17,57.99,3.41
433,1479787627,0.6089,-0.9009,0.0957,-269.02,56.34,1.10
434,1479792627,0.5889,-0.9136,0.1108,-268.96,54.51,-0.85
435,1479797627,0.5684,-0.9287,0.1797,-268.23,52.07,-2.80
436,1479802627,0.5767,-0.9336,0.1265,-266.59,50.24,-4.57
437,1479807627,0.6050,-0.9419,0.0747,-264.21,48.90,-6.16
438,1479812632,0.6191,-0.9795,0.1147,-261.28,47.38,-7.56
439,1479817628,0.5762,-1.0405,0.1372,-257.50,45.73,-8.66
440,1479822629,0.5322,-1.0791,0.0776,-252.68,44.45,-9.15
441,1479827629,0.5342,-1.0947,0.0498,-246.28,43.66,-9.33
442,1479832627,0.5952,-1.0767,0.1001,-238.35,42.20,-9.57
443,1479837630,0.6753,-1.0615,0.0845,-229.09,40.55,-10.12
444,1479842629,0.7456,-1.0562,0.0073,-218.96,39.02,-10.85
445,1479847628,0.7871,-1.0459,-0.0112,-208.90,37.44,-11.95
446,1479852629,0.7988,-1.0615,0.0186,-199.70,35.43,-13.29
447,1479857628,0.7871,-1.0703,-0.0161,-191.65,33.54,-14.88
448,1479862627,0.7695,-1.0708,-0.0767,-185.18,32.20,-16.65
449,1479867627,0.7109,-1.0718,-0.1118,-179.45,30.85,-19.21
450,1479872631,0.6777,-1.0967,-0.1050,-176.46,29.39,-21.04
451,1479877629,0.6572,-1.1045,-0.1338,-175.00,28.48,-22.44
452,1479882629,0.6519,-1.0835,-0.1577,-173.78,27.50,-24.09
453,1479887628,0.6997,-1.0493,-0.1328,-172.74,26.83,-25.73
454,1479892627,0.7632,-1.0239,-0.1250,-171.59,26.16,-27.44
455,1479897671,0.8145,-1.0195,-0.1709,-170.06,25.85,-29.09
456,1479902629,0.8398,-1.0317,-0.1836,-168.54,25.67,-30.30
457,1479907628,0.8545,-1.0527,-0.1548,-166.89,25.24,-31.16
458,1479912627,0.8589,-1.0552,-0.1655,-164.94,25.12,-31.77
459,1479917629,0.8530,-1.0522,-0.2134,-162.20,24.94,-32.32
460,1479922628,0.8511,-1.0400,-0.2412,-158.60,24.27,-33.05
461,1479927630,0.8477,-1.0151,-0.2578,-154.63,23.35,-33.84
462,1479932628,0.8179,-0.9922,-0.3062,-150.43,22.13,-35.00
463,1479937629,0.7861,-0.9878,-0.3794,-146.16,20.61,-36.65
464,1479942629,0.6099,-1.0161,-0.7559,-143.96,19.27,-38.29
465,1479947628,0.8135,-1.0752,-0.6577,-145.30,17.38,-40.73
466,1479952629,0.8550,-0.9824,-0.2002,-147.87,14.39,-43.48
467,1479957628,0.6631,-0.9580,-1.0791,-154.09,14.82,-47.93
468,1479962629,0.5688,-0.8335,-1.0435,-176.52,13.96,-52.20
469,1479967627,0.7295,-0.8545,-0.7129,-192.13,20.67,-56.89
470,1479972629,0.8945,-0.6899,-0.9233,-204.45,15.91,-59.88
471,1479977630,0.9419,-0.6216,-1.2993,-223.84,22.32,-62.80
472,1479982628,0.8652,-0.5527,-1.0786,-244.09,26.65,-65.18
473,1479987627,0.7666,-0.5229,-1.0176,-262.62,29.63,-66.22
474,1479992627,0.8740,-0.4785,-1.4531,-272.87,23.29,-65.37
475,1479997627,0.8794,-0.4492,-1.3638,-276.04,22.68,-62.68
476,1480002627,0.8198,-0.5288,-1.1167,-273.54,44.33,-59.88
477,1480007627,0.7480,-0.5938,-0.7461,-265.06,53.66,-57.80
478,1480012631,0.6655,-0.6724,-0.7119,-253.05,53.54,-56.28
479,1480017628,0.6758,-0.7285,-0.7285,-240.61,52.44,-54.82
480,1480022629,0.6353,-0.7402,-0.5601,-227.01,50.91,-54.09
481,1480027628,0.6807,-0.7139,-0.5737,-212.32,46.83,-54.39
482,1480032629,0.7109,-0.7427,-0.7793,-199.51,44.88,-55.06
483,1480037629,0.6987,-0.7808,-0.7222,-189.51,43.35,-55.91
484,1480042630,0.6748,-0.7710,-0.6401,-182.07,40.49,-56.71
485,1480047628,0.5586,-0.7017,-0.6177,-176.89,42.38,-57.87
486,1480052627,0.6719,-0.6880,-0.7607,-171.22,43.17,-59.02
487,1480057629,0.7271,-0.6865,-0.8130,-166.89,42.38,-60.61
488,1480062636,0.7095,-0.7002,-0.8867,-165.67,39.21,-62.20
489,1480067627,0.7251,-0.6670,-0.9150,-168.35,35.30,-64.33
490,1480072750,0.7915,-0.5132,-0.8638,-176.04,42.44,-67.50
491,1480077627,0.8638,-0.4438,-0.8901,-180.24,43.23,-69.45
492,1480082629,0.9048,-0.3511,-0.9102,-184.45,41.40,-71.22
493,1480087627,0.9043,-0.3057,-1.0098,-188.60,43.60,-72.01
494,1480092627,0.8169,-0.3701,-1.0977,-191.34,46.34,-71.46
495,1480097629,0.6411,-0.3418,-0.9976,-192.62,48.17,-70.18
496,1480102628,0.5649,-0.3579,-0.9512,-192.20,49.70,-69.63
497,1480107629,0.5234,-0.4155,-0.9365,-192.07,49.45,-69.63
498,1480112629,0.5112,-0.4458,-0.8462,-193.23,47.62,-70.43
499,1480117629,0.5273,-0.4409,-0.7856,-195.18,45.30,-71.89
500,1480122629,0.5601,-0.4248,-0.8066,-197.62,42.93,-73.41
501,1480127629,0.5830,-0.4136,-0.8276,-200.91,41.22,-74.88
502,1480132628,0.5811,-0.4131,-0.7876,-204.15,40.43,-76.16
503,1480137629,0.5986,-0.3979,-0.8789,-205.91,41.16,-77.26
504,1480142629,0.6753,-0.3936,-0.9497,-208.35,40.55,-77.99
505,1480147629,0.6890,-0.3628,-0.7832,-212.38,38.90,-78.48
506,1480152627,0.6836,-0.3511,-0.7812,-217.20,38.48,-79.09
507,1480157627,0.6792,-0.3530,-0.8301,-223.35,37.87,-79.45
508,1480162627,0.6611,-0.3369,-0.8218,-227.80,37.50,-79.21
509,1480167627,0.6748,-0.3037,-0.7930,-232.99,36.04,-78.84
510,1480172627,0.6685,-0.2686,-0.8159,-240.30,33.54,-78.17
511,1480177627,0.6963,-0.2607,-0.8130,-244.94,30.73,-77.56
512,1480182627,0.6821,-0.2510,-0.7939,-249.88,25.37,-76.52
513,1480188482,0.6973,-0.2363,-0.8130,-254.09,20.18,-75.49
514,1480192630,0.7002,-0.2061,-0.8413,-255.37,17.68,-74.88
515,1480197627,0.6826,-0.1445,-0.7769,-255.91,13.41,-73.78
516,1480202629,0.5664,-0.2222,-0.6787,-256.46,8.35,-72.68
517,1480207630,0.6509,-0.2725,-0.6240,-254.39,1.71,-70.91
518,1480212630,0.6968,-0.2363,-0.6255,-249.09,-2.74,-69.88
519,1480217629,0.7124,-0.1890,-0.5986,-243.78,-5.61,-69.02
520,1480222629,0.6768,-0.1807,-0.5615,-234.51,-10.91,-67.74
521,1480227627,0.6436,-0.1777,-0.5840,-228.23,-15.37,-66.59
522,1480232629,0.6079,-0.1528,-0.5869,-219.94,-20.06,-64.76
523,1480237628,0.5981,-0.1553,-0.5693,-215.12,-23.78,-63.48
524,1480242627,0.5786,-0.1372,-0.5923,-209.15,-29.39,-61.04
525,1480247631,0.5835,-0.1118,-0.6304,-204.88,-33.84,-58.66
526,1480252629,0.5947,-0.0776,-0.6699,-200.49,-37.62,-56.10
527,1480257628,0.6094,-0.0537,-0.6758,-197.07,-40.67,-53.90
528,1480262629,0.6221,-0.0332,-0.7070,-191.83,-43.48,-50.73
529,1480267627,0.6157,-0.0063,-0.7510,-187.87,-45.37,-48.17
530,1480272631,0.6172,0.0181,-0.8223,-185.49,-46.34,-45.67
531,1480277628,0.6104,0.0205,-0.8726,-186.22,-48.90,-43.23
532,1480282627,0.5688,-0.0122,-0.8022,-189.21,-50.24,-41.22
533,1480287629,0.5112,-0.0649,-0.6929,-193.48,-51.16,-39.39
534,1480292629,0.5679,-0.0474,-0.7944,-197.26,-51.46,-38.05
535,1480297627,0.5820,-0.0620,-0.8003,-202.56,-52.68,-36.52
536,1480302627,0.5864,-0.0684,-0.7314,-205.91,-53.60,-35.79
537,1480307627,0.5762,-0.0601,-0.7002,-211.77,-54.45,-34.88
538,1480312627,0.5552,-0.0835,-0.7432,-216.46,-55.30,-34.15
539,1480317627,0.5225,-0.0503,-0.7241,-225.24,-57.38,-33.23
540,1480322627,0.5146,-0.0220,-0.6509,-233.96,-59.63,-32.26
541,1480327629,0.5171,0.0039,-0.5527,-244.39,-61.95,-31.40
542,1480332631,0.5122,0.0024,-0.5322,-255.79,-65.06,-30.61
543,1480337628,0.5010,0.0083,-0.5586,-266.83,-69.21,-29.63
544,1480343277,0.5044,0.0132,-0.5366,-275.67,-73.41,-28.84
545,1480347629,0.5347,0.0098,-0.5220,-280.67,-77.44,-28.05
546,1480352628,0.5459,0.0088,-0.5654,-281.65,-81.59,-27.13
547,1480357629,0.5391,0.0068,-0.5928,-278.72,-85.61,-26.34
548,1480362629,0.5352,0.0195,-0.5732,-273.17,-89.39,-25.79
549,1480367629,0.5269,0.0332,-0.5415,-266.65,-92.74,-25.55
550,1480372628,0.5229,0.0396,-0.5171,-260.79,-96.10,-25.30
551,1480377629,0.5293,0.0415,-0.5195,-256.04,-99.88,-25.43
552,1480382627,0.5200,0.0415,-0.4980,-252.32,-103.60,-25.91
553,1480387631,0.5127,0.0352,-0.4844,-249.94,-107.56,-26.40
554,1480392669,0.5059,0.0308,-0.4985,-248.11,-111.40,-27.01
555,1480397628,0.4497,0.0654,-0.4580,-246.77,-115.12,-27.68
556,1480402627,0.4521,0.1030,-0.4854,-246.77,-118.41,-28.66
557,1480407627,0.4736,0.1074,-0.4565,-247.68,-122.62,-29.51
558,1480412741,0.4888,0.1821,-0.4399,-248.84,-127.13,-30.55
559,1480417627,0.4761,0.1577,-0.3994,-249.27,-130.98,-31.16
560,1480422629,0.4888,0.1021,-0.4141,-249.39,-135.12,-31.46
561,1480427629,0.4785,0.1250,-0.4150,-248.78,-139.15,-31.77
562,1480432629,0.3979,0.2549,-0.3848,-247.93,-142.32,-32.26
563,1480437628,0.4341,0.3296,-0.3521,-251.59,-147.38,-33.05
564,1480442629,0.4272,0.3433,-0.3711,-256.59,-152.38,-33.41
565,1480447627,0.4111,0.3394,-0.3286,-261.34,-157.13,-34.02
566,1480452629,0.4048,0.3247,-0.3076,-265.18,-161.65,-34.63
567,1480457628,0.3892,0.3193,-0.3232,-267.38,-166.22,-35.18
568,1480462629,0.3711,0.3281,-0.3354,-267.56,-170.79,-35.73
569,1480467627,0.3652,0.3516,-0.3198,-265.91,-175.30,-36.28
570,1480472627,0.3467,0.3750,-0.3101,-262.80,-179.45,-36.71
571,1480477628,0.3369,0.3843,-0.3286,-258.35,-183.72,-37.01
572,1480482627,0.3970,0.3955,-0.3350,-252.80,-187.87,-37.13
573,1480487627,0.3438,0.3945,-0.3491,-246.40,-191.83,-37.07
574,1480492627,0.3345,0.4087,-0.4604,-238.11,-195.67,-36.71
575,1480497627,0.4355,0.4585,-0.6787,-220.49,-197.93,-35.67
576,1480502627,0.4277,0.4858,-0.7368,-190.91,-198.66,-33.48
577,1480507627,0.3457,0.4766,-0.6367,-165.91,-198.23,-30.79
578,1480512631,0.3325,0.4805,-0.5483,-149.82,-198.29,-28.17
579,1480517631,0.3491,0.4907,-0.4863,-142.44,-198.78,-26.16
580,1480522628,0.3398,0.4717,-0.4512,-142.68,-200.00,-24.70
581,1480527629,0.3198,0.4609,-0.4224,-148.48,-201.59,-23.35
582,1480532628,0.3135,0.4604,-0.4170,-157.68,-203.23,-22.32
583,1480537629,0.3135,0.4673,-0.4116,-168.35,-205.43,-21.46
584,1480542628,0.3125,0.4702,-0.4043,-179.27,-207.38,-20.85
585,1480547629,0.2910,0.4692,-0.4102,-189.39,-209.21,-20.37
586,1480552655,0.2886,0.4849,-0.4199,-197.93,-211.10,-20.00
587,1480557628,0.2944,0.4971,-0.4385,-203.72,-212.74,-19.57
588,1480562629,0.3013,0.4980,-0.4595,-206.10,-214.09,-18.96
589,1480567628,0.2983,0.5049,-0.4785,-204.33,-214.94,-17.99
590,1480572629,0.2808,0.5205,-0.4756,-199.21,-215.37,-16.95
591,1480577627,0.2568,0.5396,-0.4556,-193.11,-215.79,-15.85
592,1480582629,0.2241,0.5503,-0.4062,-188.41,-216.10,-14.70
593,1480587627,0.2002,0.5654,-0.3716,-185.67,-216.77,-13.90
594,1480592629,0.1880,0.5776,-0.3467,-184.21,-217.44,-13.05
595,1480597629,0.1831,0.5947,-0.3364,-182.80,-218.66,-12.38
596,1480602627,0.1909,0.6123,-0.3281,-180.00,-220.06,-11.59
597,1480607628,0.2041,0.6348,-0.3257,-175.37,-221.59,-10.49
598,1480612627,0.2109,0.6494,-0.3213,-169.33,-223.17,-9.15
599,1480617672,0.2114,0.6509,-0.3237,-162.38,-224.82,-7.80
600,1480622629,0.2212,0.6509,-0.3120,-155.06,-226.83,-6.04
601,1480627630,0.2222,0.6514,-0.3086,-148.48,-228.66,-4.33
602,1480632629,0.2183,0.6436,-0.2969,-142.87,-230.37,-2.56
603,1480637627,0.2139,0.6416,-0.2866,-138.66,-231.83,-0.79
604,1480642627,0.2036,0.6323,-0.2866,-136.28,-232.99,0.79
605,1480647836,0.1812,0.6240,-0.2876,-135.49,-234.21,2.07
606,1480652629,0.1611,0.6226,-0.2915,-136.46,-234.94,2.87
607,1480657627,0.1377,0.6221,-0.2969,-138.96,-235.37,3.23
608,1480662629,0.1221,0.6196,-0.2983,-142.32,-235.67,3.17
609,1480667628,0.1060,0.6045,-0.2998,-146.22,-235.67,2.62
610,1480672629,0.0718,0.5840,-0.3008,-150.00,-235.73,1.95
611,1480677627,0.0537,0.5806,-0.2910,-153.17,-235.79,1.28
612,1480682629,0.0767,0.5894,-0.2773,-154.27,-235.98,0.73
613,1480687627,0.1221,0.5879,-0.2681,-153.35,-236.10,0.12
614,1480692629,0.1348,0.5820,-0.2754,-150.30,-236.46,-0.18
615,1480697629,0.1406,0.5698,-0.2632,-145.43,-237.13,-0.37
616,1480702629,0.1543,0.5918,-0.2593,-138.72,-237.93,-0.43
617,1480707628,0.1665,0.6113,-0.2515,-130.61,-238.84,-0.55
618,1480712629,0.1689,0.6196,-0.2441,-121.46,-239.63,-0.79
619,1480717629,0.1758,0.6147,-0.2480,-112.20,-240.49,-1.10
620,1480722628,0.1821,0.6084,-0.2427,-103.72,-240.98,-1.40
621,1480727629,0.1826,0.6191,-0.2397,-96.77,-241.22,-1.65
622,1480732627,0.1592,0.6196,-0.2295,-91.65,-241.04,-2.38
623,1480737628,0.1553,0.6079,-0.2227,-88.60,-240.43,-3.23
624,1480742629,0.1694,0.6055,-0.2231,-87.80,-239.39,-4.27
625,1480747629,0.1719,0.5884,-0.2197,-89.39,-237.99,-5.55
626,1480752628,0.1499,0.5708,-0.2334,-92.87,-236.28,-6.83
627,1480757628,0.1499,0.5610,-0.2271,-97.62,-234.27,-8.17
628,1480762629,0.1812,0.5742,-0.2217,-102.80,-231.95,-9.57
629,1480767629,0.1938,0.5581,-0.2246,-107.62,-229.51,-11.10
630,1480772627,0.1851,0.5469,-0.2397,-111.10,-227.07,-12.26
631,1480777629,0.1914,0.5479,-0.2344,-112.13,-224.76,-13.17
632,1480782629,0.2251,0.5732,-0.2344,-110.12,-222.74,-14.02
633,1480787629,0.2920,0.5840,-0.2329,-104.70,-220.61,-14.45
634,1480792630,0.3188,0.6040,-0.2471,-96.16,-219.02,-14.76
635,1480797629,0.3389,0.5928,-0.2427,-84.27,-217.32,-14.76
636,1480802628,0.3643,0.5957,-0.2622,-71.04,-215.67,-14.27
637,1480807677,0.3667,0.5884,-0.2700,-56.59,-214.21,-13.60
638,1480812629,0.3726,0.6055,-0.2666,-42.20,-212.38,-12.50
639,1480817628,0.3647,0.6318,-0.2744,-28.96,-210.24,-11.46
640,1480822630,0.3413,0.6206,-0.2798,-17.38,-207.74,-10.61
641,1480827976,0.3008,0.6074,-0.3086,-8.05,-205.12,-9.57
642,1480832629,0.2998,0.5884,-0.2827,-0.43,-202.01,-8.41
643,1480837627,0.3359,0.5908,-0.2754,5.67,-198.84,-6.89
644,1480842629,0.3579,0.5928,-0.2715,10.91,-195.49,-5.30
645,1480847628,0.3833,0.6177,-0.2666,15.73,-191.95,-3.48
646,1480852629,0.3779,0.6260,-0.2637,20.37,-188.29,-1.59
647,1480857629,0.3667,0.6279,-0.2681,25.06,-184.45,0.43
648,1480862629,0.3823,0.6289,-0.2812,30.06,-180.67,2.56
649,1480867627,0.3955,0.6509,-0.2759,35.43,-176.46,4.94
650,1480872629,0.3784,0.6685,-0.2632,41.04,-172.07,7.50
651,1480877628,0.3535,0.6919,-0.2886,46.83,-167.80,10.00
652,1480882629,0.3477,0.7197,-0.3276,52.74,-163.54,12.50
653,1480887629,0.3643,0.7183,-0.3174,58.66,-159.51,14.82
654,1480892629,0.3838,0.7261,-0.3105,63.90,-155.37,17.38
655,1480897627,0.3804,0.7358,-0.3086,68.17,-151.22,20.06
656,1480902629,0.3765,0.7622,-0.3174,72.20,-147.44,22.80
657,1480907628,0.3462,0.7778,-0.3198,75.98,-143.66,25.49
658,1480912629,0.3110,0.7778,-0.3354,80.00,-140.49,28.29
659,1480917627,0.2803,0.7808,-0.3623,84.33,-137.80,31.34
660,1480922629,0.2778,0.7808,-0.3726,89.76,-135.61,34.82
661,1480927629,0.3232,0.7896,-0.3682,96.89,-133.96,38.72
662,1480932629,0.3638,0.7998,-0.3843,105.24,-132.68,43.17
663,1480937628,0.3765,0.7749,-0.3872,114.02,-132.13,48.23
664,1480942629,0.4019,0.7769,-0.3872,122.62,-131.71,54.21
665,1480947627,0.4565,0.7812,-0.3677,129.33,-131.71,60.49
666,1480952628,0.5244,0.7798,-0.3633,136.22,-131.71,67.38
667,1480957627,0.5791,0.7700,-0.3633,140.30,-131.95,74.57
668,1480962629,0.5796,0.7637,-0.3481,142.20,-132.01,81.89
669,1480967628,0.5811,0.7778,-0.3320,141.89,-132.07,89.15
670,1480972928,0.5718,0.8032,-0.3252,139.39,-131.83,95.98
671,1480977629,0.5469,0.8149,-0.3516,135.49,-131.59,102.50
672,1480982628,0.5215,0.8105,-0.3765,130.91,-131.65,108.78
673,1480987629,0.5225,0.8066,-0.4131,125.24,-131.59,115.18
674,1480992628,0.5337,0.8086,-0.4263,120.24,-131.59,121.52
675,1480997629,0.5249,0.8022,-0.4448,116.28,-131.59,128.23
676,1481002629,0.5098,0.7935,-0.4746,114.21,-131.52,135.06
677,1481007627,0.5010,0.7891,-0.5088,114.33,-131.34,142.13
678,1481012629,0.4932,0.7852,-0.5361,116.83,-130.98,149.63
679,1481017629,0.4839,0.7656,-0.5601,121.16,-130.73,157.44
680,1481022629,0.4795,0.7490,-0.5728,126.71,-130.00,165.43
681,1481027629,0.5039,0.7393,-0.5781,133.23,-128.96,173.54
682,1481032627,0.5151,0.7163,-0.5967,140.67,-127.74,181.95
683,1481037627,0.4946,0.6914,-0.6001,147.93,-125.98,190.49
684,1481042627,0.4980,0.6616,-0.5869,154.76,-123.78,199.02
685,1481047686,0.5015,0.6245,-0.5923,161.04,-121.16,207.80
686,1481052628,0.5195,0.5869,-0.6118,167.32,-118.23,216.83
687,1481057627,0.5532,0.5586,-0.6577,174.39,-115.24,226.16
688,1481062627,0.5898,0.5273,-0.7007,182.44,-112.38,235.79
689,1481067627,0.6328,0.4902,-0.7412,191.22,-109.94,245.85
690,1481072627,0.6758,0.4561,-0.7949,200.06,-107.62,256.10
691,1481077627,0.6807,0.4238,-0.8496,208.17,-105.12,266.34
692,1481082627,0.6519,0.3955,-0.8843,214.27,-102.20,276.10
693,1481087627,0.6260,0.3608,-0.8892,217.87,-98.78,285.30
694,1481092631,0.5981,0.3276,-0.8682,218.96,-94.76,293.54
695,1481097628,0.5581,0.2808,-0.8560,218.35,-89.27,301.16
696,1481102629,0.5078,0.2363,-0.8589,216.65,-83.17,308.11
697,1481107629,0.4478,0.1787,-0.8633,214.45,-76.65,314.57
698,1481112629,0.3936,0.1216,-0.8599,212.68,-69.51,320.79
699,1481117629,0.3555,0.0518,-0.8408,211.65,-61.71,326.77
700,1481122631,0.3276,-0.0083,-0.8252,211.83,-53.23,332.87
701,1481127634,0.3091,-0.0674,-0.7949,213.84,-44.57,339.15
702,1481132628,0.2964,-0.1353,-0.7861,217.80,-35.37,345.55
703,1481137628,0.2866,-0.1943,-0.7676,223.96,-26.04,352.20
704,1481142627,0.2891,-0.2549,-0.7656,232.44,-16.59,359.15
705,1481147627,0.2925,-0.3110,-0.7749,242.87,-7.26,366.22
706,1481152627,0.2891,-0.3374,-0.8086,254.70,1.83,373.41
707,1481158429,0.2739,-0.3350,-0.8521,269.76,12.01,381.40
708,1481162629,0.2739,-0.3369,-0.8921,279.27,18.48,386.22
709,1481167630,0.2642,-0.3345,-0.9346,289.57,25.85,391.71
710,1481172629,0.2490,-0.3130,-0.9595,296.46,33.05,396.34
711,1481177627,0.2295,-0.3252,-0.9375,299.02,39.82,399.70
712,1481182629,0.2158,-0.3545,-0.8779,296.46,46.95,402.13
713,1481187628,0.1855,-0.4097,-0.8179,289.02,54.51,404.15
714,1481192627,0.1226,-0.4868,-0.7427,277.62,62.20,405.73
715,1481197673,0.0181,-0.5962,-0.6943,263.29,70.30,407.68
716,1481202627,-0.1182,-0.7451,-0.6353,246.95,78.54,410.43
717,1481207628,-0.2451,-0.8589,-0.5581,230.00,87.01,414.27
718,1481212627,-0.3013,-0.9248,-0.4771,214.09,94.94,418.90
719,1481217627,-0.3281,-0.9722,-0.4404,200.85,102.99,423.60
720,1481222629,-0.3599,-0.9893,-0.4434,191.40,110.55,428.72
721,1481227631,-0.3887,-0.9639,-0.4922,185.91,117.20,433.41
722,1481232629,-0.4082,-0.9155,-0.5249,184.02,122.07,437.38
723,1481237628,-0.4019,-0.8867,-0.5537,184.82,125.00,440.18
724,1481242629,-0.3872,-0.8721,-0.5557,186.71,126.71,441.95
725,1481247628,-0.3740,-0.8745,-0.5005,188.17,127.68,442.50
726,1481252629,-0.3657,-0.8672,-0.4253,188.54,128.29,441.77
727,1481257628,-0.4204,-0.8770,-0.3286,187.50,129.02,439.88
728,1481262627,-0.5190,-0.9141,-0.2607,185.06,130.12,437.20
729,1481267628,-0.6392,-0.9688,-0.2085,181.22,131.46,434.02
730,1481272629,-0.7554,-1.0239,-0.1714,175.73,132.62,430.79
731,1481277628,-0.8823,-1.0776,-0.1240,169.21,133.60,427.62
732,1481282628,-2.7441,-0.4165,-0.1934,161.95,135.06,425.43
733,1481287629,-2.3252,2.1382,4.2773,400.61,43.54,282.62
734,1481292628,1.4019,-3.3594,3.6895,446.59,60.73,249.63
735,1481297629,0.4775,-8.7334,-1.3447,401.34,105.79,260.49
736,1481302670,-0.2705,-7.4653,-1.9873,340.79,57.62,274.39
737,1481307627,-0.5366,-2.2642,1.6406,278.23,43.17,277.01
738,1481312627,-0.5078,2.2266,0.9365,217.56,67.26,269.09
739,1481317631,-0.6089,3.0532,-2.0098,163.41,49.39,258.72
740,1481322627,-0.7598,0.8604,-0.8887,108.23,30.79,254.76
741,1481327627,-0.8262,-1.9512,1.1895,52.87,34.45,256.10
742,1481332628,-0.7310,-3.5122,-0.1938,3.84,32.26,258.05
743,1481337627,-0.7139,-3.2095,-1.4849,-33.60,16.22,256.65
744,1481342627,-0.8896,-1.7812,0.1177,-58.84,9.51,251.65
745,1481347629,-0.9907,-0.5010,0.9189,-73.35,11.95,245.37
746,1481352628,-0.9478,-0.0981,-0.7495,-78.66,4.15,239.33
747,1481357628,-0.9429,-0.7002,-1.3188,-76.46,-11.77,234.45
748,1481362628,-1.0469,-1.6577,0.0415,-68.60,-19.33,231.40
749,1481367629,-1.1108,-2.2578,0.1167,-54.63,-23.11,228.54
750,1481372629,-1.0796,-2.1890,-1.2158,-34.63,-36.28,224.33
751,1481377629,-1.0537,-1.6929,-1.1362,-10.12,-51.83,218.17
752,1481382630,-1.0786,-1.1650,-0.0908,16.04,-59.57,211.10
753,1481387627,-0.9546,-0.9438,-0.4297,42.68,-66.71,203.23
754,1481392627,-0.7627,-1.1333,-1.2896,68.96,-80.18,196.34
755,1481397627,-0.6934,-1.4175,-0.8340,92.50,-91.16,191.04
756,1481402627,-0.7153,-1.5513,-0.2148,110.61,-95.85,186.34
757,1481407636,-0.7363,-1.4805,-0.7905,122.93,-102.50,180.98
758,1481412629,-0.7705,-1.3364,-1.2852,129.33,-112.99,174.76
759,1481417627,-0.8799,-1.2280,-0.7344,126.89,-119.70,167.99
760,1481422627,-1.0107,-1.2563,-0.3750,115.73,-122.26,160.91
761,1481427627,-1.0498,-1.4102,-0.8765,96.89,-127.32,154.27
762,1481432627,-1.0278,-1.5791,-1.0024,71.83,-133.78,147.68
763,1481437630,-1.0396,-1.7197,-0.4297,41.83,-136.52,141.04
764,1481442627,-1.0776,-1.8027,-0.2744,9.27,-137.13,133.90
765,1481447973,-1.1016,-1.8096,-0.6206,-22.68,-140.37,126.52
766,1481452629,-1.1191,-1.8164,-0.5259,-51.04,-144.70,118.84
767,1481457627,-1.1367,-1.8467,-0.1377,-72.99,-147.68,111.04
768,1481462628,-1.1011,-1.8672,-0.2544,-86.52,-152.32,103.35
769,1481467627,-1.0723,-1.9062,-0.5640,-90.98,-161.04,95.79
770,1481472645,-1.0977,-1.9224,-0.4053,-87.50,-171.34,88.78
771,1481477627,-1.1182,-1.9478,-0.1548,-77.87,-181.34,82.20
772,1481482627,-1.1323,-1.9019,-0.3232,-64.45,-193.84,76.34
773,1481487627,-1.1831,-1.7402,-0.5532,-49.27,-210.24,70.98
774,1481492627,-1.2007,-1.6748,-0.4619,-32.74,-227.99,64.88
775,1481497627,-1.2158,-1.6196,-0.4331,-16.77,-246.71,58.66
776,1481502627,-1.2827,-1.6069,-0.6738,-2.99,-267.99,52.13
777,1481507627,-1.3730,-1.6396,-0.7725,7.20,-290.98,45.30
778,1481512627,-1.4126,-1.6919,-0.6304,12.50,-312.32,38.35
779,1481517627,-1.4365,-1.7637,-0.6279,12.20,-331.65,31.10
780,1481522627,-1.5322,-1.8804,-0.7632,6.65,-350.49,23.48
781,1481527627,-1.7173,-2.0024,-0.7539,-2.93,-367.68,15.00
782,1481532627,-1.9209,-2.0737,-0.6699,-14.82,-382.50,5.12
783,1481537627,-2.0430,-2.0894,-0.7397,-26.65,-396.34,-6.89
784,1481543022,-2.1206,-2.1323,-0.8848,-36.40,-409.63,-20.79
785,1481547630,-2.2129,-2.1787,-0.8916,-42.93,-419.82,-36.22
786,1481552782,-2.3389,-2.2109,-0.8853,-44.63,-434.51,-52.99
787,1481557627,-2.4253,-2.2114,-0.9951,-41.46,-446.77,-70.37
788,1481562627,-2.4087,-2.1914,-1.1016,-32.62,-458.96,-87.87
789,1481567630,-2.2769,-2.1616,-1.1157,-18.41,-471.46,-104.09
790,1481572628,-2.1846,-2.1162,-1.1787,0.24,-484.02,-118.66
791,1481577629,-2.2354,-2.0859,-1.3213,21.95,-496.89,-131.34
792,1481582627,-2.3931,-2.0576,-1.3662,44.94,-510.37,-142.56
793,1481587629,-2.6626,-2.0103,-1.3350,67.74,-523.90,-152.93
794,1481592628,-2.9780,-1.9497,-1.3525,89.02,-538.23,-163.54
795,1481597629,-3.2964,-1.9326,-1.4097,107.38,-553.48,-174.21
796,1481602630,-3.5957,-1.9443,-1.4019,121.65,-570.85,-184.51
797,1481607629,-3.9043,-2.0190,-1.3784,131.16,-593.54,-196.22
798,1481612630,-4.0928,-2.0771,-1.3574,133.29,-609.76,-203.29
799,1481617627,-4.2593,-2.1499,-1.3530,131.16,-631.52,-211.22
800,1481622627,-4.3398,-2.2207,-1.3149,126.34,-654.70,-217.93
801,1481627627,-4.4463,-2.2979,-1.2959,121.16,-678.96,-223.17
802,1481632628,-4.6206,-2.3677,-1.3154,118.35,-704.57,-227.13
803,1481637627,-4.8169,-2.3848,-1.3008,119.82,-730.67,-229.94
804,1481642627,-4.9761,-2.4028,-1.2842,126.52,-756.89,-231.46
805,1481647627,-5.1099,-2.4429,-1.3535,140.73,-783.72,-231.40
806,1481652627,-5.2817,-2.4878,-1.4619,161.77,-810.85,-229.33
807,1481657632,-5.5513,-2.5000,-1.5195,189.15,-837.50,-225.67
808,1481662629,-5.8789,-2.4712,-1.5464,221.77,-865.06,-221.22
809,1481667629,-6.1265,-2.4390,-1.5615,258.05,-892.20,-215.55
810,1481672627,-6.3120,-2.4165,-1.6245,296.52,-919.76,-208.11
811,1481677627,-6.4585,-2.4121,-1.6387,334.76,-948.96,-198.23
812,1481682627,-6.5889,-2.3936,-1.6396,368.96,-979.51,-185.37
813,1481687627,-6.7017,-2.4248,-1.6572,395.85,-1011.59,-169.09
814,1481692627,-6.7764,-2.4917,-1.6855,413.54,-1044.39,-149.57
815,1481697627,-6.9194,-2.5522,-1.7368,421.89,-1077.13,-127.68
816,1481702629,-7.1372,-2.6841,-1.7549,418.96,-1109.51,-104.82
817,1481707628,-7.3687,-2.9526,-1.7920,403.35,-1138.72,-82.56
818,1481712631,-7.5732,-3.1602,-1.7998,376.89,-1163.23,-63.78
819,1481717627,-7.7642,-3.3462,-1.8218,342.07,-1181.46,-52.74
820,1481722629,-8.0068,-3.5786,-1.9248,300.00,-1193.66,-51.34
821,1481727628,-8.1885,-3.8081,-2.0830,251.40,-1200.61,-59.88
822,1481732629,-8.2207,-3.9312,-2.2349,197.62,-1204.76,-78.48
823,1481737627,-8.2490,-3.9844,-2.4287,137.99,-1206.52,-107.99
824,1481742627,-8.3057,-3.9761,-2.5537,67.74,-1207.01,-148.60
825,1481747627,-8.1670,-3.8896,-2.5742,-16.77,-1204.15,-200.98
826,1481752629,-7.9609,-3.7515,-2.5859,-114.27,-1194.76,-265.12
827,1481757629,-7.8403,-3.5483,-2.5825,-216.89,-1178.90,-339.27
828,1481762628,-7.7988,-3.2466,-2.5674,-316.28,-1155.43,-420.98
829,1481767627,-7.6387,-2.9282,-2.6196,-406.71,-1122.32,-507.87
830,1481772629,-7.4370,-2.6050,-2.6592,-484.51,-1077.93,-596.22
831,1481777662,-7.2231,-2.2563,-2.6714,-548.35,-1022.01,-682.44
832,1481782628,-6.9673,-1.9302,-2.6934,-594.94,-956.22,-762.74
833,1481787629,-6.6519,-1.5977,-2.7905,-620.18,-881.52,-833.23
834,1481792627,-6.2583,-1.2842,-2.8545,-621.22,-802.26,-891.28
835,1481797629,-5.7407,-0.9575,-2.7988,-602.62,-722.32,-934.94
836,1481802629,-5.2300,-0.7705,-2.7251,-572.62,-645.18,-964.70
837,1481807629,-4.8916,-0.6934,-2.4512,-540.06,-571.89,-981.16
838,1481812629,-4.5410,-0.6509,-2.1572,-504.51,-501.10,-984.63
839,1481817627,-4.1650,-0.4458,-2.1279,-456.34,-433.84,-975.30
840,1481822627,-3.9287,-0.1699,-2.2075,-393.17,-373.60,-956.04
841,1481827629,-3.8979,0.1230,-2.2368,-324.70,-321.28,-929.21
842,1481832628,-3.9111,0.3418,-2.1118,-262.62,-274.94,-897.87
843,1481837627,-3.8447,0.5488,-1.9077,-215.06,-231.77,-863.23
844,1481842627,-3.6528,0.8149,-1.7578,-182.07,-190.43,-826.83
845,1481847629,-3.6060,0.9790,-1.7109,-160.73,-150.79,-789.39
846,1481852628,-3.4238,1.0996,-1.5820,-148.60,-112.87,-750.67
847,1481857631,-3.1333,1.2197,-1.3999,-142.56,-76.04,-711.71
848,1481862627,-3.0376,1.2324,-1.2881,-139.27,-40.85,-672.07
849,1481867629,-2.8740,1.2593,-1.1841,-135.91,-7.99,-632.01
850,1481872628,-2.7339,1.2388,-1.1060,-129.09,22.13,-591.71
851,1481877627,-2.5767,1.2305,-1.0156,-116.52,49.21,-550.79
852,1481882629,-2.2075,1.1846,-0.9858,-96.46,72.13,-509.88
853,1481887629,-1.9702,1.0879,-1.0122,-70.61,90.49,-469.45
854,1481892628,-1.7817,1.0112,-0.9941,-43.17,105.79,-430.67
855,1481897629,-1.6357,0.9150,-0.9976,-18.41,117.87,-394.57
856,1481902627,-1.5068,0.7856,-1.0396,1.04,127.50,-361.83
857,1481907627,-1.3760,0.6914,-1.0464,15.61,135.37,-332.07
858,1481912627,-1.2827,0.6118,-1.0503,27.32,141.40,-305.30
859,1481917627,-1.2148,0.5454,-1.0811,38.11,145.61,-281.59
860,1481922627,-1.1099,0.4907,-1.0850,51.22,148.60,-256.77
861,1481927630,-1.0571,0.4614,-1.0767,60.61,149.39,-242.13
862,1481932900,-1.0464,0.4258,-1.0508,73.35,149.39,-225.98
863,1481937629,-1.0356,0.4219,-1.0415,87.44,148.11,-211.52
864,1481942629,-0.9595,0.3901,-1.0903,103.23,145.55,-198.78
865,1481948056,-0.8901,0.3823,-1.1357,122.80,140.98,-185.85
866,1481952629,-0.9199,0.3945,-1.1328,133.54,137.62,-178.84
867,1481957629,-0.9795,0.4038,-1.1201,142.20,133.78,-172.26
868,1481962629,-0.9927,0.3828,-1.1128,144.15,130.37,-167.50
869,1481967628,-0.9585,0.3560,-1.0869,139.02,127.50,-164.21
870,1481972629,-0.9136,0.3442,-1.0669,128.23,125.00,-162.13
871,1481977628,-0.9258,0.3242,-1.0615,111.40,122.99,-160.98
872,1481982629,-0.9526,0.3159,-1.0078,91.40,121.16,-160.30
873,1481987628,-0.8887,0.3398,-0.9639,70.43,119.88,-159.82
874,1481992629,-0.7876,0.3389,-0.9575,51.95,118.54,-159.15
875,1481997628,-0.7026,0.3364,-0.9600,37.87,116.71,-157.93
876,1482002629,-0.6577,0.3374,-0.9580,28.41,113.78,-156.28
877,1482007629,-0.6279,0.3394,-0.9307,22.74,110.79,-154.33
878,1482012627,-0.5791,0.3345,-0.9009,20.24,107.13,-152.01
879,1482017627,-0.5229,0.3228,-0.8892,20.18,103.35,-149.39
880,1482022631,-0.4863,0.3237,-0.8838,22.13,99.27,-146.59
881,1482027838,-0.4712,0.3438,-0.8857,25.18,94.82,-143.84
882,1482032629,-0.5181,0.3486,-0.8862,28.29,90.18,-141.28
883,1482037629,-0.5469,0.3647,-0.8589,30.91,86.65,-138.60
884,1482042628,-0.5322,0.3926,-0.8389,33.05,82.44,-136.16
885,1482047629,-0.5259,0.4165,-0.8496,34.88,78.72,-133.72
886,1482052627,-0.5444,0.4312,-0.8599,35.73,75.30,-131.10
887,1482057629,-0.5508,0.4541,-0.8550,34.94,71.89,-128.54
888,1482062627,-0.5405,0.4653,-0.8457,32.44,68.96,-125.91
889,1482067627,-0.5151,0.4604,-0.8428,27.74,65.98,-123.23
890,1482072673,-0.4966,0.4751,-0.8477,21.34,63.66,-120.55
891,1482077629,-0.4976,0.4795,-0.8540,13.29,61.46,-118.17
892,1482082629,-0.4785,0.4790,-0.8462,3.96,59.45,-116.04
893,1482087629,-0.4648,0.4736,-0.8467,-6.16,57.87,-114.27
894,1482092629,-0.4600,0.4697,-0.8271,-16.59,56.71,-112.50
895,1482097627,-0.4321,0.4629,-0.8140,-26.34,55.73,-110.85
896,1482102832,-0.4141,0.4619,-0.8154,-34.70,54.82,-109.21
897,1482107629,-0.4023,0.4502,-0.7959,-40.30,53.72,-107.50
898,1482112628,-0.3784,0.4517,-0.7788,-42.93,52.74,-105.43
899,1482117629,-0.3379,0.4722,-0.7500,-42.01,51.40,-102.93
900,1482122629,-0.3164,0.4795,-0.7241,-38.11,49.82,-100.06
901,1482127629,-0.3066,0.4849,-0.6973,-31.59,48.17,-97.01
902,1482132628,-0.2798,0.4883,-0.6772,-23.48,46.28,-93.60
903,1482137627,-0.2705,0.4878,-0.6787,-14.57,43.84,-89.76
904,1482142627,-0.2700,0.5068,-0.6562,-5.91,41.34,-85.91
905,1482147631,-0.2881,0.5312,-0.6470,1.40,38.78,-82.13
906,1482152627,-0.3091,0.5425,-0.6450,6.89,36.46,-78.54
907,1482157628,-0.2988,0.5513,-0.6616,9.70,34.15,-75.06
908,1482162627,-0.3027,0.5703,-0.6689,9.63,32.13,-72.01
909,1482167627,-0.3511,0.5845,-0.6777,6.46,30.30,-69.45
910,1482172629,-0.3730,0.5972,-0.6748,0.43,28.54,-67.13
911,1482177628,-0.3604,0.6001,-0.6689,-7.26,27.32,-65.06
912,1482182628,-0.3237,0.6084,-0.6582,-15.43,26.22,-63.05
913,1482187841,-0.3066,0.6055,-0.6553,-22.80,25.24,-60.91
914,1482192629,-0.2881,0.6074,-0.6328,-28.90,24.39,-58.72
915,1482197631,-0.2695,0.6035,-0.6167,-33.05,23.60,-56.22
916,1482202629,-0.2490,0.6016,-0.5972,-34.82,22.87,-53.60
917,1482207628,-0.2153,0.6074,-0.5942,-33.78,22.26,-51.04
918,1482212630,-0.1943,0.6055,-0.5933,-30.00,21.52,-48.41
919,1482217627,-0.1953,0.6025,-0.6006,-23.96,20.55,-45.79
920,1482222658,-0.2134,0.6074,-0.5977,-16.77,19.51,-43.29
921,1482227628,-0.2280,0.6118,-0.5898,-9.57,18.72,-41.04
922,1482232627,-0.2290,0.6128,-0.5684,-2.56,17.99,-38.90
923,1482237627,-0.2188,0.6245,-0.5596,3.54,17.26,-36.52
924,1482242629,-0.1953,0.6382,-0.5503,9.21,16.65,-34.21
925,1482247630,-0.1836,0.6431,-0.5396,14.21,15.85,-31.77
926,1482252628,-0.1797,0.6562,-0.5352,18.05,15.06,-29.15
927,1482257629,-0.1772,0.6748,-0.5386,21.16,14.09,-26.52
928,1482262627,-0.1602,0.6958,-0.5381,23.29,12.99,-23.84
929,1482267627,-0.1475,0.7046,-0.5439,24.70,11.65,-21.10
930,1482273105,-0.1187,0.7144,-0.5479,25.37,10.18,-17.93
931,1482277629,-0.1128,0.7178,-0.5645,24.70,9.21,-15.79
932,1482282628,-0.1060,0.7129,-0.5786,22.50,7.80,-13.35
933,1482287629,-0.0967,0.6992,-0.5859,18.35,6.59,-11.04
934,1482292627,-0.0850,0.6802,-0.6001,12.44,5.55,-8.96
935,1482297629,-0.0752,0.6636,-0.6050,4.94,4.70,-7.07
936,1482302627,-0.0698,0.6392,-0.6074,-2.93,3.96,-5.37
937,1482307630,-0.0732,0.6338,-0.6133,-10.24,3.41,-3.90
938,1482312628,-0.0630,0.6230,-0.6187,-15.91,2.80,-2.50
939,1482317629,-0.0610,0.6074,-0.6104,-19.21,2.13,-1.16
940,1482322627,-0.0645,0.6025,-0.6030,-20.06,1.65,0.00
941,1482327629,-0.0532,0.6035,-0.5928,-18.41,0.98,1.10
942,1482332627,-0.0444,0.5977,-0.5835,-13.96,0.43,2.20
943,1482337627,-0.0366,0.5957,-0.5894,-7.32,-0.06,3.29
944,1482342628,-0.0220,0.5972,-0.5972,1.40,-0.98,4.39
945,1482347627,-0.0220,0.5967,-0.6016,11.16,-1.83,5.43
946,1482352627,-0.0186,0.5913,-0.6084,20.55,-2.87,6.52
947,1482357629,-0.0068,0.5840,-0.6279,28.66,-3.72,7.38
948,1482362628,-0.0020,0.5840,-0.6392,34.33,-4.70,7.99
949,1482367629,-0.0093,0.5796,-0.6631,36.95,-5.49,8.23
950,1482372627,-0.0112,0.5752,-0.6670,35.85,-5.91,8.11
951,1482377629,-0.0063,0.5654,-0.6758,31.65,-6.46,7.68
952,1482382628,-0.0063,0.5527,-0.6807,25.12,-6.89,7.20
953,1482387630,0.0024,0.5469,-0.6899,17.07,-6.95,6.65
954,1482392627,0.0034,0.5469,-0.6938,8.78,-7.20,5.98
955,1482397629,0.0068,0.5454,-0.6880,1.34,-7.32,5.49
956,1482402628,0.0361,0.5479,-0.6831,-4.27,-7.44,5.18
957,1482407629,0.0498,0.5430,-0.6929,-7.38,-7.74,5.12
958,1482412627,0.0601,0.5425,-0.6963,-8.05,-8.17,5.24
959,1482417629,0.0698,0.5430,-0.6938,-6.71,-8.66,5.55
960,1482422627,0.0718,0.5381,-0.6841,-4.09,-9.09,6.04
961,1482427631,0.0845,0.5298,-0.6821,-0.37,-9.82,6.65
962,1482432628,0.1069,0.5215,-0.6890,3.66,-10.18,7.13
963,1482437629,0.1187,0.5137,-0.6855,7.32,-10.61,7.74
964,1482442627,0.1025,0.5024,-0.7065,10.18,-11.16,8.11
965,1482447629,0.0845,0.4917,-0.6943,11.65,-11.28,8.11
966,1482452629,0.0649,0.4761,-0.6992,11.71,-11.34,7.87
967,1482457629,0.0469,0.4609,-0.6958,10.73,-11.28,7.50
968,1482462627,0.0254,0.4561,-0.6919,9.57,-11.04,7.01
969,1482467629,0.0205,0.4644,-0.6914,9.09,-10.73,6.40
970,1482472629,0.0254,0.4766,-0.6831,9.76,-10.55,5.91
971,1482477644,0.0298,0.4878,-0.6836,11.77,-10.12,5.43
972,1482482628,0.0361,0.4941,-0.6909,14.63,-10.12,4.94
973,1482487630,0.0449,0.4937,-0.6860,18.17,-10.00,4.88
974,1482492627,0.0508,0.4966,-0.6851,21.65,-9.94,4.94
975,1482497630,0.0552,0.5020,-0.6899,25.06,-9.88,5.12
976,1482502627,0.0674,0.4971,-0.7046,27.62,-10.12,5.30
977,1482507629,0.0649,0.4941,-0.7168,29.02,-10.18,5.79
978,1482512627,0.0527,0.4990,-0.7251,28.23,-10.30,5.98
979,1482517627,0.0469,0.4917,-0.7275,25.61,-10.30,6.04
980,1482522707,0.0513,0.4946,-0.7300,21.28,-10.30,6.10
981,1482527629,0.0620,0.4927,-0.7305,15.98,-10.06,5.98
982,1482532627,0.0620,0.4946,-0.7437,10.24,-10.06,5.85
983,1482537628,0.0488,0.4961,-0.7476,4.70,-10.12,5.49
984,1482542628,0.0361,0.4927,-0.7446,-0.24,-10.24,5.12
985,1482547627,0.0308,0.4868,-0.7422,-4.21,-10.24,4.94
986,1482552627,0.0322,0.4927,-0.7358,-6.52,-10.43,4.82
987,1482557631,0.0405,0.5015,-0.7266,-7.20,-10.67,4.88
988,1482562628,0.0337,0.5024,-0.7153,-5.79,-10.98,5.12
989,1482567629,0.0347,0.5015,-0.7148,-2.87,-11.46,5.49
990,1482572627,0.0249,0.5088,-0.7207,1.22,-12.07,5.85
991,1482577627,0.0137,0.5068,-0.7158,6.04,-12.87,6.46
992,1482582627,0.0000,0.5034,-0.7217,10.85,-13.54,7.13
993,1482587627,0.0000,0.4976,-0.7300,15.30,-14.27,7.80
994,1482592628,0.0054,0.4971,-0.7300,18.96,-15.12,8.72
995,1482597629,0.0088,0.4990,-0.7373,21.28,-15.91,9.45
996,1482602628,0.0112,0.4980,-0.7446,22.07,-16.59,9.88
997,1482607627,0.0063,0.4956,-0.7451,20.91,-17.44,10.24
998,1482612627,-0.0059,0.4814,-0.7441,17.74,-17.74,10.30
999,1482617629,-0.0225,0.4678,-0.7480,12.56,-17.99,10.30
1000,1482622629,-0.0337,0.4600,-0.7456,6.59,-18.05,10.18
1001,1482627629,-0.0410,0.4517,-0.7373,0.18,-17.99,10.12
1002,1482632658,-0.0557,0.4434,-0.7275,-5.85,-17.93,10.12
1003,1482637629,-0.0591,0.4463,-0.7227,-10.67,-17.93,10.06
1004,1482642651,-0.0542,0.4478,-0.7163,-13.84,-17.80,10.24
1005,1482647629,-0.0547,0.4526,-0.7090,-14.94,-18.05,10.49
1006,1482652627,-0.0537,0.4556,-0.6973,-13.96,-18.23,11.04
1007,1482657629,-0.0557,0.4604,-0.6860,-11.04,-18.66,11.83
1008,1482662628,-0.0601,0.4775,-0.6699,-6.04,-19.21,12.74
1009,1482667629,-0.0605,0.4858,-0.6665,0.30,-19.63,14.02
1010,1482672627,-0.0552,0.4990,-0.6685,7.87,-20.79,15.49
1011,1482677629,-0.0503,0.5093,-0.6704,15.79,-21.71,17.07
1012,1482682627,-0.0620,0.5054,-0.6719,23.17,-22.68,18.90
1013,1482687628,-0.0674,0.5020,-0.6699,29.39,-23.96,20.73
1014,1482692629,-0.0625,0.4932,-0.6772,33.90,-25.18,22.68
1015,1482697628,-0.0649,0.4932,-0.6753,35.91,-26.40,24.57
1016,1482702629,-0.0835,0.4883,-0.6802,35.30,-27.38,26.22
1017,1482707629,-0.1011,0.4800,-0.6689,32.32,-28.05,27.68
1018,1482712704,-0.1177,0.4790,-0.6670,27.44,-28.72,29.02
1019,1482717628,-0.1152,0.4800,-0.6636,21.28,-29.39,30.24
1020,1482722629,-0.1206,0.4790,-0.6641,14.51,-29.82,31.34
1021,1482727628,-0.1299,0.4775,-0.6592,7.80,-30.37,32.32
1022,1482732630,-0.1514,0.4707,-0.6562,1.34,-30.91,33.29
1023,1482737627,-0.1631,0.4736,-0.6431,-4.09,-31.59,34.39
1024,1482742627,-0.1714,0.4731,-0.6357,-7.99,-32.07,35.49
1025,1482747629,-0.1768,0.4697,-0.6270,-10.06,-32.68,36.77
1026,1482752628,-0.1841,0.4727,-0.6177,-10.06,-33.29,38.35
1027,1482757627,-0.2002,0.4663,-0.5991,-8.17,-34.09,40.30
1028,1482762627,-0.2090,0.4727,-0.5825,-3.96,-34.82,42.62
1029,1482767629,-0.2012,0.4829,-0.5820,2.01,-35.67,45.43
1030,1482772627,-0.1938,0.4971,-0.5845,9.70,-36.52,48.54
1031,1482777973,-0.1997,0.5132,-0.5898,20.24,-37.74,53.23
1032,1482782629,-0.2104,0.5244,-0.5864,27.44,-38.48,56.77
1033,1482787628,-0.2153,0.5283,-0.5874,35.73,-39.51,61.34
1034,1482792628,-0.2109,0.5347,-0.5864,42.80,-40.37,65.98
1035,1482797629,-0.2197,0.5366,-0.5923,48.41,-41.22,70.49
1036,1482802628,-0.2383,0.5435,-0.5996,52.32,-41.71,74.63
1037,1482807629,-0.2554,0.5503,-0.6123,54.45,-41.83,78.66
1038,1482812627,-0.2637,0.5557,-0.6143,54.70,-41.59,82.68
1039,1482817629,-0.2578,0.5513,-0.6167,53.54,-41.28,86.52
1040,1482822628,-0.2495,0.5449,-0.6128,51.22,-40.73,90.00
1041,1482828072,-0.2461,0.5356,-0.6172,47.74,-39.82,94.76
1042,1482832629,-0.2495,0.5278,-0.6089,45.49,-39.21,97.93
1043,1482837627,-0.2612,0.5244,-0.6045,43.29,-38.48,101.89
1044,1482842627,-0.2588,0.5190,-0.5874,42.32,-37.50,105.98
1045,1482847627,-0.2593,0.5107,-0.5767,42.74,-36.52,109.94
1046,1482852628,-0.2749,0.4863,-0.5640,44.88,-35.61,113.90
1047,1482857628,-0.3032,0.4536,-0.5483,48.72,-34.70,118.29
1048,1482862628,-0.3306,0.4253,-0.5244,54.63,-33.72,122.80
1049,1482867627,-0.3379,0.4048,-0.5068,62.93,-32.74,127.87
1050,1482872627,-0.3306,0.3892,-0.5171,73.90,-32.07,133.11
1051,1482877630,-0.3232,0.3691,-0.5332,87.32,-31.40,138.84
1052,1482882629,-0.3350,0.3530,-0.5479,102.44,-30.79,144.82
1053,1482887629,-0.3315,0.3325,-0.5825,118.35,-30.55,151.16
1054,1482892628,-0.3398,0.3203,-0.5908,134.21,-30.18,157.38
1055,1482897630,-0.3511,0.3081,-0.5962,148.84,-29.45,163.78
1056,1482902627,-0.3677,0.2993,-0.5757,161.22,-28.17,169.82
1057,1482907629,-0.3535,0.2915,-0.5542,170.91,-26.04,175.61
1058,1482912628,-0.3271,0.2881,-0.5400,177.68,-23.29,180.85
1059,1482918027,-0.3203,0.2666,-0.5244,181.71,-19.21,186.65
1060,1482922630,-0.3213,0.2422,-0.5132,182.20,-16.16,190.30
1061,1482927628,-0.3228,0.2114,-0.5015,180.55,-12.01,194.70
1062,1482932629,-0.3198,0.1914,-0.4897,177.07,-7.50,198.84
1063,1482937629,-0.3096,0.1670,-0.4771,172.68,-2.93,202.93
1064,1482942629,-0.3047,0.1455,-0.4785,167.87,1.71,206.89
1065,1482947628,-0.3081,0.1196,-0.4653,163.29,6.52,210.79
1066,1482952629,-0.3218,0.0977,-0.4561,159.33,11.28,214.76
1067,1482957627,-0.3447,0.0737,-0.4424,156.65,16.04,218.84
1068,1482962831,-0.3613,0.0366,-0.4282,155.06,20.67,223.05
1069,1482967627,-0.3867,-0.0039,-0.4102,154.94,25.00,227.44
1070,1482972631,-0.3999,-0.0264,-0.3936,156.28,29.51,232.13
1071,1482977629,-0.3936,-0.0508,-0.3809,159.39,33.84,236.83
1072,1482982628,-0.3828,-0.0718,-0.3750,164.15,38.23,241.65
1073,1482987629,-0.3892,-0.0845,-0.3716,170.24,42.44,246.40
1074,1482992627,-0.4038,-0.0996,-0.3735,177.68,46.83,251.04
1075,1482997629,-0.3975,-0.1094,-0.3853,186.10,51.28,255.37
1076,1483002628,-0.3823,-0.1079,-0.3975,195.00,55.67,259.51
1077,1483007629,-0.3740,-0.1094,-0.4136,204.51,60.00,262.87
1078,1483012627,-0.3608,-0.1167,-0.4429,213.66,64.33,266.04
1079,1483017627,-0.3496,-0.1294,-0.4590,222.07,68.96,268.41
1080,1483022629,-0.3604,-0.1401,-0.4565,228.96,73.48,270.37
1081,1483027627,-0.3711,-0.1548,-0.4580,234.09,78.48,271.83
1082,1483032629,-0.3726,-0.1782,-0.4448,237.20,84.27,272.74
1083,1483037629,-0.3809,-0.2197,-0.4282,237.93,88.66,273.23
1084,1483042629,-0.4028,-0.2700,-0.4209,236.16,94.70,273.60
1085,1483047627,-0.4336,-0.3237,-0.4023,232.32,100.61,273.90
1086,1483052629,-0.4707,-0.3770,-0.3770,226.28,106.34,274.21
1087,1483057627,-0.4888,-0.4224,-0.3511,218.72,112.07,274.63
1088,1483062629,-0.5039,-0.4702,-0.3247,210.00,117.68,275.18
1089,1483067628,-0.5088,-0.5127,-0.2988,200.55,123.35,275.85
1090,1483072629,-0.5127,-0.5518,-0.2817,191.04,128.54,276.71
1091,1483077629,-0.5024,-0.5835,-0.2637,182.01,133.60,277.74
1092,1483082628,-0.4854,-0.5981,-0.2476,173.60,138.17,279.02
1093,1483087629,-0.4482,-0.6060,-0.2500,166.46,142.44,280.24
1094,1483092627,-0.4023,-0.6216,-0.2603,160.79,146.10,281.22
1095,1483097629,-0.3711,-0.6328,-0.2817,156.52,149.09,282.07
1096,1483102628,-0.3535,-0.6611,-0.3003,153.54,151.46,282.74
1097,1483107627,-0.3486,-0.6978,-0.3252,151.52,153.41,283.35
1098,1483112627,-0.3589,-0.7324,-0.3574,150.30,154.94,283.84
1099,1483117629,-0.3662,-0.7646,-0.3745,149.21,155.98,284.27
1100,1483122629,-0.3804,-0.8140,-0.3926,147.99,157.01,284.57
1101,1483127629,-0.4189,-0.8516,-0.3979,146.04,157.68,284.63
1102,1483132628,-0.4717,-0.8979,-0.3940,143.11,158.72,284.76
1103,1483137627,-0.5273,-0.9805,-0.3906,139.02,159.70,284.94
1104,1483142629,-0.5669,-1.0801,-0.3843,133.84,160.73,285.24
1105,1483147628,-0.5986,-1.1743,-0.3687,127.68,161.59,286.16
1106,1483152629,-0.5854,-1.2246,-0.3496,120.24,162.44,287.13
1107,1483157629,-0.5352,-1.2349,-0.3262,113.17,162.87,287.87
1108,1483162629,-0.4546,-1.2285,-0.3101,107.13,163.35,288.23
1109,1483167658,-0.3594,-1.2031,-0.2988,102.56,163.29,287.99
1110,1483172629,-0.2549,-1.1758,-0.2939,100.37,162.80,287.01
1111,1483177627,-0.1558,-1.1401,-0.2852,100.55,162.26,285.30
1112,1483182628,-0.0776,-1.1221,-0.2891,103.35,161.89,282.68
1113,1483187630,-0.0400,-1.1309,-0.2988,108.60,161.22,279.33
1114,1483192627,-0.0513,-1.1694,-0.3218,115.37,160.43,275.61
1115,1483197632,-0.0942,-1.2139,-0.3271,122.80,159.76,271.52
1116,1483202628,-0.1567,-1.2739,-0.3306,130.24,159.39,267.32
1117,1483207627,-0.2065,-1.3535,-0.3301,135.43,158.90,263.11
1118,1483212627,-0.2529,-1.4414,-0.3281,138.84,158.72,259.09
1119,1483218191,-0.2769,-1.5493,-0.3174,139.82,158.35,254.94
1120,1483222629,-0.2686,-1.6138,-0.3140,138.72,157.80,252.44
1121,1483228110,-0.2393,-1.6948,-0.3086,135.30,156.95,249.33
1122,1483232658,-0.2158,-1.7251,-0.3159,132.44,155.98,247.56
1123,1483237627,-0.1982,-1.7524,-0.3232,129.45,154.63,245.49
1124,1483242627,-0.1982,-1.7676,-0.3340,126.52,152.87,243.35
1125,1483247628,-0.2031,-1.7666,-0.3594,125.85,150.85,241.10
1126,1483252629,-0.2144,-1.7500,-0.3750,126.59,148.66,238.60
1127,1483257628,-0.2046,-1.6953,-0.3862,129.94,146.40,235.43
1128,1483262627,-0.1772,-1.6348,-0.3721,134.02,144.76,231.59
1129,1483267778,-0.1270,-1.6064,-0.3369,140.24,143.35,227.20
1130,1483272629,-0.0566,-1.6074,-0.3101,147.74,142.50,222.56
1131,1483277629,0.0215,-1.6353,-0.2896,155.61,142.13,218.17
1132,1483282629,0.1016,-1.6738,-0.2549,162.87,142.20,214.27
1133,1483287629,0.1694,-1.7183,-0.2256,168.29,142.44,210.73
1134,1483292627,0.2065,-1.7593,-0.2114,171.46,142.87,207.80
1135,1483297629,0.2383,-1.8076,-0.1943,171.59,143.11,205.12
1136,1483302628,0.2603,-1.8438,-0.1821,169.21,143.29,202.74
1137,1483307630,0.2681,-1.8735,-0.1826,164.88,143.29,200.49
1138,1483312627,0.2749,-1.8853,-0.1929,158.84,142.56,198.05
1139,1483317629,0.2710,-1.8833,-0.2007,151.95,141.59,195.37
1140,1483322628,0.2603,-1.8740,-0.2095,144.63,140.00,192.13
1141,1483327869,0.2471,-1.8618,-0.2192,137.01,138.23,188.54
1142,1483332629,0.2354,-1.8540,-0.2163,128.96,136.16,184.15
1143,1483337628,0.2305,-1.8481,-0.1929,121.83,133.84,179.27
1144,1483342627,0.2344,-1.8379,-0.1685,113.84,131.65,173.90
1145,1483347627,0.2373,-1.8306,-0.1377,105.61,129.27,167.99
1146,1483352629,0.2397,-1.8208,-0.1099,97.07,127.07,161.65
1147,1483357629,0.2339,-1.7949,-0.0776,88.48,125.30,154.82
1148,1483362629,0.2275,-1.7759,-0.0557,79.94,123.29,147.62
1149,1483367627,0.2358,-1.7183,-0.0303,72.20,121.65,140.00
1150,1483372629,0.2617,-1.6851,0.0029,65.73,120.06,132.07
1151,1483377629,0.2764,-1.6587,0.0161,60.98,118.48,123.90
1152,1483382629,0.2876,-1.6294,0.0215,58.29,117.13,115.85
1153,1483387629,0.2803,-1.6216,0.0220,57.44,115.67,107.99
1154,1483392628,0.2773,-1.6045,0.0112,57.99,114.27,100.12
1155,1483397629,0.2817,-1.5928,0.0151,60.24,112.50,92.50
1156,1483402627,0.2852,-1.5933,0.0010,63.60,110.37,85.49
1157,1483407630,0.2964,-1.5952,-0.0127,67.74,108.17,78.41
1158,1483412628,0.3101,-1.5967,-0.0195,72.56,105.43,71.77
1159,1483417629,0.3159,-1.5894,-0.0215,77.38,102.56,65.55
1160,1483422753,0.3262,-1.5747,-0.0322,81.83,99.45,59.51
1161,1483427628,0.3296,-1.5752,-0.0283,85.98,96.22,53.48
1162,1483432627,0.3311,-1.5747,-0.0127,89.09,93.05,47.93
1163,1483437629,0.3267,-1.5659,0.0044,91.04,89.88,42.44
1164,1483442629,0.3315,-1.5503,0.0273,91.83,87.50,37.07
1165,1483447629,0.3315,-1.5356,0.0479,91.10,84.94,31.89
1166,1483452629,0.3359,-1.5166,0.0737,89.33,82.20,26.89
1167,1483457627,0.3477,-1.4873,0.0903,86.46,79.76,22.01
1168,1483462627,0.3638,-1.4619,0.1191,82.68,77.62,17.26
1169,1483467627,0.3730,-1.4380,0.1323,78.23,75.61,12.56
1170,1483472829,0.3706,-1.4146,0.1328,73.60,73.96,7.93
1171,1483477628,0.3745,-1.3940,0.1357,68.72,72.26,3.60
1172,1483482629,0.3726,-1.3716,0.1367,63.72,70.49,-0.67
1173,1483487629,0.3677,-1.3496,0.1382,58.84,68.78,-4.76
1174,1483492628,0.3672,-1.3271,0.1323,53.96,67.13,-8.84
1175,1483497629,0.3628,-1.3154,0.1309,49.09,65.24,-12.68
1176,1483502627,0.3569,-1.3013,0.1284,43.96,63.41,-16.34
1177,1483507629,0.3438,-1.2881,0.1313,38.96,61.46,-19.82
1178,1483512628,0.3384,-1.2832,0.1279,34.02,59.57,-23.11
1179,1483517627,0.3237,-1.2710,0.1353,29.21,57.38,-26.10
1180,1483522627,0.3174,-1.2642,0.1333,24.88,55.24,-28.96
1181,1483527627,0.3096,-1.2573,0.1318,20.85,52.87,-31.59
1182,1483532627,0.3013,-1.2466,0.1245,17.56,50.73,-33.84
1183,1483537647,0.2915,-1.2451,0.1294,14.94,48.11,-35.98
1184,1483542627,0.2856,-1.2422,0.1235,13.11,45.67,-37.74
1185,1483547629,0.2827,-1.2305,0.1245,12.01,42.87,-39.39
