# skilleye imu stream v1
# device=xiao_esp32c6 imu=mpu6050 addr=0x68
# rate_hz=200 accel_range_g=16 gyro_range_dps=2000 dlpf_hz=94
# units: accel in g, gyro in deg/s, t_us in microseconds since boot (monotonic)
# no shared clock with the camera -- tap the racket once before each take
# so both recordings share a spike to align on
seq,t_us,ax,ay,az,gx,gy,gz
0,1240512629,0.3706,0.8125,0.2285,39.63,-16.71,-1.10
1,1240517631,0.3291,0.7920,0.2021,36.28,-17.20,0.91
2,1240522628,0.3188,0.7905,0.1704,32.07,-17.38,3.54
3,1240527629,0.3438,0.8184,0.1650,27.07,-17.50,6.04
4,1240532629,0.3750,0.8545,0.1382,20.91,-17.62,7.80
5,1240537629,0.3638,0.8457,0.0879,13.66,-18.54,8.66
6,1240542628,0.3325,0.8208,0.1733,6.89,-20.43,8.90
7,1240547631,0.3169,0.8271,0.1963,1.04,-22.44,8.84
8,1240552630,0.3003,0.8374,0.1616,-2.07,-23.90,8.48
9,1240557992,0.3042,0.8164,0.1597,-6.28,-25.73,7.74
10,1240562629,0.3188,0.8022,0.1699,-8.90,-26.83,7.44
11,1240567628,0.3521,0.8164,0.1538,-12.20,-27.80,7.07
12,1240572627,0.3892,0.8486,0.1489,-15.00,-28.29,6.95
13,1240577627,0.4307,0.8574,0.1240,-16.95,-28.05,7.32
14,1240582629,0.4634,0.8647,0.1201,-17.38,-27.32,8.11
15,1240587631,0.4951,0.8706,0.1177,-16.10,-25.98,9.33
16,1240592628,0.5015,0.8940,0.1060,-13.05,-24.33,10.79
17,1240597629,0.5015,0.9185,0.0967,-8.66,-22.38,12.20
18,1240602629,0.5029,0.9395,0.0952,-3.23,-20.91,13.60
19,1240607627,0.4927,0.9233,0.1040,2.99,-19.33,15.00
20,1240612627,0.4746,0.9028,0.1021,8.41,-17.99,16.16
21,1240617627,0.4878,0.9097,0.1094,12.62,-17.01,17.13
22,1240622627,0.5190,0.9258,0.1216,15.30,-16.34,17.93
23,1240627629,0.5337,0.9409,0.1323,16.28,-15.98,18.72
24,1240632629,0.5400,0.9512,0.1338,15.91,-15.79,19.33
25,1240637627,0.5332,0.9609,0.1338,14.02,-15.91,20.00
26,1240642627,0.5278,0.9678,0.1245,11.28,-16.10,20.49
27,1240647627,0.5229,0.9839,0.1157,7.56,-16.40,20.79
28,1240652629,0.4741,1.0234,0.0913,2.93,-17.01,20.61
29,1240657627,0.5132,1.0054,0.1631,-1.89,-17.50,19.94
30,1240662627,0.5356,1.0020,0.1406,-8.11,-17.74,19.33
31,1240667627,0.5581,0.9976,0.1021,-15.30,-18.23,18.90
32,1240672627,0.5688,0.9990,0.1182,-22.20,-18.72,18.48
33,1240677627,0.5693,1.0088,0.1216,-27.74,-19.15,18.17
34,1240682627,0.5776,1.0127,0.1187,-31.28,-19.76,17.80
35,1240687627,0.5825,1.0093,0.1069,-33.35,-20.49,17.50
36,1240692629,0.5933,1.0015,0.0884,-33.72,-21.28,17.38
37,1240697631,0.5977,1.0088,0.0562,-32.93,-22.56,17.62
38,1240702628,0.5991,1.0034,0.0449,-30.67,-24.76,17.93
39,1240707629,0.5942,1.0269,0.0576,-27.50,-27.93,18.23
40,1240712627,0.5811,1.0195,0.0728,-22.93,-31.95,18.54
41,1240717629,0.5620,1.0615,0.0718,-17.44,-35.79,18.41
42,1240722628,0.5474,1.0840,0.0967,-12.50,-39.15,17.50
43,1240727627,0.5771,0.9604,0.1709,-9.27,-40.79,16.34
44,1240732629,0.6035,0.9297,0.0952,-8.17,-40.00,16.28
45,1240737629,0.6025,1.0112,0.0020,-9.21,-37.80,16.22
46,1240742629,0.6089,1.0630,0.0469,-11.40,-35.18,14.57
47,1240747628,0.6318,0.9419,0.1133,-14.09,-33.29,12.26
48,1240752627,0.5884,0.8423,0.1313,-15.85,-31.95,11.22
49,1240757627,0.5820,0.8477,0.1108,-15.37,-31.52,10.85
50,1240762628,0.5991,0.8188,0.1489,-13.29,-30.98,10.85
51,1240767631,0.5674,0.8188,0.1470,-11.22,-30.37,10.67
52,1240772628,0.5708,0.7944,0.1226,-9.76,-29.39,10.00
53,1240777627,0.5864,0.7524,0.1470,-9.45,-28.17,9.45
54,1240782629,0.5620,0.7500,0.1470,-9.76,-26.77,8.90
55,1240787627,0.5391,0.7837,0.1416,-10.98,-25.18,8.35
56,1240792629,0.5488,0.7964,0.1353,-13.05,-23.78,7.56
57,1240797628,0.5630,0.8037,0.1406,-15.55,-22.32,7.01
58,1240802629,0.5566,0.8105,0.1372,-18.11,-21.22,6.89
59,1240807629,0.5322,0.8140,0.1382,-20.49,-20.06,7.38
60,1240812628,0.4976,0.8091,0.1426,-23.05,-18.90,8.78
61,1240817629,0.4756,0.8184,0.1533,-25.98,-17.87,10.49
62,1240822629,0.4766,0.8252,0.1543,-29.51,-17.01,12.26
63,1240827629,0.4780,0.8374,0.1567,-33.29,-16.16,13.96
64,1240832628,0.4819,0.8408,0.1519,-36.89,-15.61,15.49
65,1240837627,0.4907,0.8398,0.1440,-39.27,-15.00,16.89
66,1240842627,0.5024,0.8311,0.1416,-39.94,-14.88,18.17
67,1240847627,0.5146,0.8193,0.1421,-37.87,-14.33,19.33
68,1240852629,0.5127,0.8105,0.1270,-33.35,-13.72,20.37
69,1240857629,0.5088,0.7778,0.1387,-27.20,-13.11,21.28
70,1240862998,0.5249,0.7627,0.1479,-20.43,-12.44,21.95
71,1240867630,0.5308,0.7563,0.1567,-14.63,-11.65,22.13
72,1240872629,0.5308,0.7466,0.1616,-10.49,-10.98,21.95
73,1240877629,0.5103,0.7427,0.1650,-7.62,-10.24,21.65
74,1240882629,0.5054,0.7466,0.1694,-5.91,-9.39,21.52
75,1240887629,0.5112,0.7612,0.1758,-5.12,-8.72,21.28
76,1240892627,0.5259,0.7734,0.1743,-4.94,-7.80,21.04
77,1240897634,0.5376,0.7896,0.1851,-5.55,-7.13,20.49
78,1240902629,0.5386,0.7988,0.1748,-7.07,-6.40,19.82
79,1240907627,0.5283,0.8008,0.1621,-9.63,-5.49,19.21
80,1240912631,0.5415,0.8013,0.1558,-13.05,-4.57,18.60
81,1240917627,0.5679,0.8145,0.1304,-16.89,-3.84,17.93
82,1240922627,0.5781,0.8413,0.1138,-19.63,-3.29,17.32
83,1240927627,0.5796,0.8418,0.0977,-19.88,-3.11,17.07
84,1240932627,0.5908,0.8374,0.0972,-17.07,-3.29,17.13
85,1240938109,0.6069,0.8418,0.0972,-10.37,-3.41,17.32
86,1240942630,0.6206,0.8271,0.0996,-4.76,-3.78,17.56
87,1240947629,0.6377,0.8174,0.0981,2.32,-4.15,17.44
88,1240952628,0.6548,0.8164,0.0972,8.78,-4.57,17.07
89,1240957631,0.6602,0.8140,0.0967,13.72,-4.94,16.40
90,1240962632,0.6587,0.8105,0.1006,17.01,-5.30,15.43
91,1240967627,0.6470,0.8223,0.1187,18.78,-5.30,14.63
92,1240972627,0.6289,0.8345,0.1211,19.02,-5.49,13.66
93,1240977627,0.6138,0.8501,0.1206,17.74,-5.37,12.93
94,1240982627,0.6016,0.8628,0.1270,14.70,-5.43,12.32
95,1240987629,0.5801,0.8750,0.1226,10.24,-5.24,12.07
96,1240992628,0.5625,0.8765,0.1289,5.24,-5.24,12.13
97,1240997627,0.5454,0.8765,0.1338,0.79,-5.37,12.62
98,1241002629,0.5337,0.8726,0.1372,-2.93,-5.55,13.41
99,1241007629,0.5220,0.8643,0.1309,-6.10,-5.79,14.15
100,1241012628,0.5181,0.8608,0.1289,-9.21,-5.73,15.12
101,1241017627,0.5083,0.8555,0.1235,-11.89,-5.61,16.10
102,1241022629,0.5044,0.8521,0.1260,-14.27,-5.61,17.13
103,1241027628,0.4971,0.8516,0.1235,-16.10,-5.30,18.29
104,1241032627,0.4966,0.8535,0.1191,-17.38,-5.24,19.33
105,1241037627,0.5029,0.8501,0.1250,-18.29,-4.88,20.43
106,1241042629,0.5088,0.8447,0.1216,-18.54,-4.45,21.71
107,1241047628,0.5151,0.8438,0.1147,-18.23,-4.09,22.87
108,1241053157,0.5132,0.8359,0.1099,-17.50,-3.48,24.39
109,1241057631,0.5156,0.8296,0.1182,-16.95,-3.05,25.49
110,1241062628,0.5156,0.8325,0.1143,-16.28,-2.44,26.83
111,1241067627,0.5195,0.8354,0.1328,-15.91,-1.89,28.17
112,1241072631,0.5151,0.8457,0.1230,-15.55,-1.34,29.57
113,1241077627,0.5137,0.8516,0.1406,-15.67,-0.98,30.91
114,1241082627,0.5156,0.8457,0.1460,-16.10,-0.98,32.07
115,1241087629,0.5244,0.8379,0.1528,-16.65,-1.28,33.11
116,1241092629,0.5332,0.8311,0.1602,-16.89,-1.89,33.96
117,1241097627,0.5503,0.8286,0.1577,-16.59,-2.68,34.82
118,1241102629,0.5625,0.8237,0.1558,-15.49,-3.48,35.55
119,1241107631,0.5737,0.8174,0.1626,-14.21,-4.02,36.34
120,1241112628,0.5840,0.8076,0.1553,-12.87,-4.63,36.71
121,1241117629,0.5894,0.7910,0.1602,-11.77,-5.37,37.07
122,1241122627,0.5879,0.7798,0.1631,-11.04,-6.16,37.32
123,1241127631,0.5845,0.7729,0.1499,-10.55,-6.65,37.38
124,1241132628,0.5898,0.7642,0.1519,-10.43,-7.38,37.26
125,1241137627,0.5884,0.7583,0.1489,-10.12,-7.99,37.13
126,1241142627,0.5903,0.7627,0.1387,-9.45,-8.72,36.83
127,1241147629,0.5903,0.7598,0.1382,-8.84,-9.09,36.46
128,1241152629,0.5889,0.7559,0.1396,-7.99,-9.33,35.85
129,1241157629,0.5986,0.7407,0.1348,-7.32,-9.70,35.18
130,1241162628,0.6016,0.7217,0.1270,-6.71,-10.00,34.27
131,1241167629,0.6030,0.7188,0.1279,-6.46,-10.12,33.23
132,1241172627,0.6001,0.7231,0.0991,-6.04,-10.18,32.07
133,1241177627,0.5698,0.7236,0.0654,-5.06,-10.00,30.73
134,1241182627,0.5596,0.7305,0.0518,-3.17,-9.82,29.33
135,1241187627,0.5688,0.7202,0.0742,-0.67,-9.76,27.74
136,1241192627,0.5898,0.6978,0.1016,1.89,-9.45,25.98
137,1241197627,0.6069,0.6802,0.1128,4.15,-9.09,23.96
138,1241202630,0.6313,0.6699,0.1030,5.55,-8.72,21.89
139,1241207627,0.6538,0.6646,0.0972,6.34,-8.29,19.70
140,1241212704,0.6597,0.6582,0.0913,6.89,-8.11,17.32
141,1241217629,0.6602,0.6523,0.0801,7.74,-7.56,15.06
142,1241222628,0.6558,0.6523,0.0825,9.21,-7.20,12.68
143,1241227629,0.6709,0.6514,0.0898,11.16,-6.77,10.30
144,1241232629,0.6816,0.6538,0.1025,13.35,-6.34,7.99
145,1241237627,0.6968,0.6567,0.1011,15.79,-5.98,5.37
146,1241242627,0.7070,0.6553,0.1021,18.23,-5.49,2.74
147,1241247627,0.7080,0.6621,0.1182,20.55,-4.70,0.12
148,1241252629,0.7017,0.6523,0.1001,22.50,-3.78,-2.68
149,1241257627,0.6797,0.6533,0.0918,23.84,-2.87,-5.49
150,1241262631,0.6528,0.6421,0.0864,25.00,-1.65,-8.23
151,1241267628,0.6357,0.6309,0.0869,26.10,-0.49,-10.79
152,1241272629,0.6274,0.6104,0.0859,27.26,0.55,-13.17
153,1241277691,0.6196,0.6050,0.0913,28.66,1.28,-15.06
154,1241282627,0.6118,0.6035,0.0664,29.94,1.89,-16.83
155,1241287627,0.6040,0.6060,0.0850,31.46,2.32,-18.60
156,1241292627,0.5977,0.6030,0.0752,33.41,2.32,-20.24
157,1241297627,0.5952,0.5903,0.0830,35.98,1.71,-21.71
158,1241302631,0.5942,0.5825,0.1606,39.94,1.46,-22.80
159,1241307629,0.6025,0.5786,0.1265,44.27,1.22,-23.60
160,1241312628,0.6064,0.5625,0.1196,49.02,0.73,-24.33
161,1241317629,0.6113,0.6016,0.1455,53.60,0.55,-25.06
162,1241322627,0.6289,0.5767,0.1006,58.17,0.24,-25.79
163,1241327631,0.6216,0.5713,0.1094,62.68,0.24,-26.59
164,1241332628,0.6021,0.5977,0.1074,67.01,0.18,-27.26
165,1241337630,0.5962,0.5923,0.0640,71.71,0.18,-27.93
166,1241342627,0.5947,0.5757,0.1538,77.56,0.37,-28.17
167,1241347627,0.5894,0.5869,0.0718,83.17,0.55,-28.23
168,1241352629,0.5947,0.6294,0.0459,88.84,0.37,-28.11
169,1241357629,0.5869,0.6299,0.1577,94.63,0.73,-27.74
170,1241362629,0.6196,0.6899,0.0659,98.48,1.10,-27.99
171,1241367629,0.6309,0.7300,0.0449,99.39,0.67,-29.45
172,1241372628,0.6177,0.7251,0.0850,97.99,0.12,-31.28
173,1241377627,0.6123,0.6992,0.0820,95.24,-0.43,-32.80
174,1241382629,0.5879,0.7300,0.0820,92.01,-1.40,-34.09
175,1241387629,0.5825,0.7456,0.0625,88.54,-2.50,-35.49
176,1241392629,0.5728,0.7397,0.0864,85.18,-3.48,-36.95
177,1241397629,0.5601,0.7397,0.0942,82.26,-4.51,-38.35
178,1241402629,0.5498,0.7358,0.0972,79.88,-5.37,-39.57
179,1241407630,0.5361,0.7383,0.1016,78.48,-5.91,-40.43
180,1241412629,0.5386,0.7539,0.0840,77.13,-6.28,-41.34
181,1241417629,0.5562,0.7671,0.0693,75.91,-6.83,-42.26
182,1241422629,0.5669,0.7861,0.0771,74.39,-7.07,-43.17
183,1241427628,0.5781,0.7939,0.0615,72.26,-7.20,-44.09
184,1241432629,0.5718,0.7969,0.0449,70.18,-7.50,-44.63
185,1241437629,0.5669,0.8066,0.0396,68.48,-7.93,-44.70
186,1241442629,0.5571,0.8218,0.0454,67.74,-8.35,-44.51
187,1241447628,0.5679,0.8301,0.0537,68.17,-8.35,-44.15
188,1241452627,0.5630,0.8433,-0.0405,69.70,-8.48,-43.54
189,1241457627,0.5801,0.8589,0.0000,71.10,-8.84,-42.93
190,1241462629,0.5811,0.8550,0.0093,72.44,-8.48,-42.44
191,1241467629,0.5605,0.8579,-0.0137,73.84,-8.17,-42.01
192,1241472627,0.5464,0.8672,-0.0312,75.00,-7.80,-41.59
193,1241477627,0.5435,0.8877,-0.0430,75.79,-6.95,-41.16
194,1241482629,0.5366,0.9146,-0.0547,75.91,-6.04,-40.79
195,1241487629,0.5493,0.9258,-0.0596,75.00,-5.12,-40.37
196,1241492627,0.5513,0.9253,-0.0586,72.68,-4.33,-40.00
197,1241497628,0.5464,0.9341,-0.0713,68.78,-3.78,-39.63
198,1241502627,0.5518,0.9546,-0.0864,63.84,-3.54,-39.39
199,1241507630,0.5571,0.9697,-0.0737,58.23,-3.60,-39.09
200,1241512629,0.5718,1.0020,-0.0562,52.68,-3.78,-38.60
201,1241517628,0.5601,1.0361,-0.0327,47.32,-4.33,-38.05
202,1241522627,0.5273,1.0454,-0.0234,41.77,-4.82,-37.62
203,1241527629,0.5122,1.0391,-0.0449,35.37,-5.43,-37.13
204,1241532764,0.4995,1.0366,-0.0474,27.68,-5.98,-36.46
205,1241537629,0.5039,1.0220,-0.0444,18.78,-6.52,-35.79
206,1241542629,0.5156,1.0029,-0.0293,9.21,-7.26,-34.76
207,1241547629,0.5518,1.0049,-0.0234,-0.18,-7.56,-33.35
208,1241552628,0.5942,1.0093,-0.0337,-8.48,-7.87,-31.40
209,1241557630,0.6001,1.0083,-0.0518,-15.00,-7.80,-29.21
210,1241562629,0.5918,1.0054,-0.0830,-19.15,-7.20,-26.28
211,1241567629,0.5786,1.0225,-0.1309,-20.85,-6.34,-23.29
212,1241572627,0.5835,1.0381,-0.1382,-20.43,-5.30,-20.24
213,1241577627,0.5806,1.0459,-0.1167,-18.96,-4.27,-17.38
214,1241582627,0.5723,1.0469,-0.1167,-17.13,-2.62,-14.63
215,1241587627,0.5601,1.0405,-0.1367,-15.79,-0.98,-12.26
216,1241592627,0.5508,1.0322,-0.1387,-14.76,0.55,-10.06
217,1241597627,0.5503,1.0259,-0.1304,-14.39,1.95,-8.11
218,1241602627,0.5488,1.0327,-0.1138,-14.63,3.35,-5.98
219,1241607627,0.5522,1.0234,-0.0986,-15.24,4.63,-4.02
220,1241612828,0.5566,1.0195,-0.0684,-16.65,6.34,-1.77
221,1241617631,0.5796,1.0259,-0.0454,-19.15,8.54,0.30
222,1241622629,0.5908,1.0215,-0.0674,-23.29,11.04,2.26
223,1241627629,0.5933,1.0254,-0.0903,-29.33,13.72,4.21
224,1241632627,0.5996,1.0254,-0.0908,-36.59,16.04,6.10
225,1241637630,0.6084,1.0210,-0.0669,-44.21,18.48,8.17
226,1241642628,0.6108,1.0112,-0.0737,-51.52,20.61,10.30
227,1241647629,0.6123,0.9800,-0.0508,-58.35,22.62,12.68
228,1241652629,0.5693,0.9653,-0.0708,-63.17,24.27,15.37
229,1241657628,0.5156,1.2749,-0.6494,-67.87,17.87,13.96
230,1241662677,0.5010,0.8931,0.0264,-72.62,7.38,11.04
231,1241667627,0.5195,0.8438,0.3555,-73.35,-0.18,9.09
232,1241672629,0.5879,0.7168,0.4502,-68.54,-4.63,7.87
233,1241677629,0.6484,0.9902,0.3203,-60.43,-5.06,6.10
234,1241682629,0.6548,0.9741,0.0732,-53.84,-2.68,1.71
235,1241687627,0.6533,0.7466,-0.1377,-49.15,-0.24,-1.77
236,1241692627,0.6357,0.6768,-0.1699,-44.88,1.04,-3.72
237,1241697627,0.6851,0.6123,-0.0444,-39.94,2.07,-5.24
238,1241702627,0.7920,0.7026,-0.0332,-34.70,3.17,-6.95
239,1241707653,0.8882,0.6313,0.0024,-29.45,4.09,-9.70
240,1241712629,0.8149,0.6226,0.0220,-24.82,4.39,-12.38
241,1241717629,0.6714,0.6338,0.0068,-19.70,3.72,-14.88
242,1241723027,0.7285,0.6445,0.1230,-13.90,1.95,-17.56
243,1241727629,0.8320,0.5181,0.2480,-6.46,0.98,-18.41
244,1241732629,0.7886,0.5938,0.2358,0.73,-0.55,-18.66
245,1241737628,0.7305,0.6929,0.2222,5.85,-2.93,-19.76
246,1241742629,0.7427,0.7671,0.2734,10.00,-5.06,-21.04
247,1241747629,0.7896,0.8413,0.2734,13.60,-6.89,-22.13
248,1241752627,0.8203,0.9282,0.2676,15.85,-8.23,-23.17
249,1241757627,0.8467,0.9858,0.2476,16.16,-9.70,-24.15
250,1241762627,0.7910,1.0078,0.2129,11.77,-11.04,-24.09
251,1241767629,0.7329,1.0674,0.1636,5.98,-12.13,-22.99
252,1241772629,0.6665,1.1484,0.1255,-3.41,-13.35,-20.91
253,1241777629,0.6206,1.2134,0.0977,-13.23,-14.33,-17.80
254,1241782629,0.5903,1.2822,0.0903,-21.40,-15.00,-13.54
255,1241787627,0.5610,1.3442,0.0713,-26.95,-15.06,-8.78
256,1241792627,0.5483,1.3955,0.0474,-29.76,-14.94,-3.54
257,1241797628,0.5679,1.4370,0.0254,-30.00,-14.63,2.07
258,1241802627,0.6030,1.4790,0.0386,-28.54,-14.27,8.23
259,1241807627,0.6079,1.5317,0.0376,-25.61,-13.60,15.00
260,1241812627,0.5322,1.5664,-0.0381,-20.91,-13.17,22.44
261,1241817627,0.5352,1.6079,-0.0493,-14.51,-12.62,30.24
262,1241822627,0.5449,1.6455,-0.0449,-5.98,-11.83,38.54
263,1241827631,0.5640,1.6689,-0.0718,4.27,-10.67,47.07
264,1241832629,0.5767,1.6846,-0.0977,15.24,-9.27,55.61
265,1241837628,0.5771,1.6748,-0.0835,24.94,-7.87,63.96
266,1241842629,0.6045,1.6670,-0.0737,31.16,-6.22,71.95
267,1241847628,0.6426,1.6392,-0.0908,33.41,-5.06,79.70
268,1241852631,0.5972,1.6367,-0.0396,32.74,-4.15,87.20
269,1241857630,0.6216,1.5962,-0.0312,29.15,-3.48,93.66
270,1241862629,0.6299,1.5728,-0.0791,24.82,-3.17,100.30
271,1241867629,0.4429,1.6299,0.0615,19.39,-2.50,106.71
272,1241872629,0.5405,1.6255,0.0815,14.15,-1.52,113.35
273,1241877627,0.5679,1.5977,-0.0938,11.04,-1.34,119.94
274,1241882629,0.5503,1.5874,0.0010,10.30,-1.10,126.65
275,1241887628,0.5303,1.5938,0.0459,11.77,0.06,133.35
276,1241892629,0.5312,1.5845,-0.0649,13.84,0.73,139.70
277,1241897627,0.5527,1.5693,-0.0586,15.55,1.04,145.79
278,1241902627,0.5869,1.5474,-0.0244,17.32,1.46,151.46
279,1241907627,0.6172,1.5127,-0.0615,20.37,1.52,156.83
280,1241912627,0.6465,1.4731,-0.0630,24.70,1.46,161.65
281,1241917627,0.6792,1.4292,-0.0088,29.45,1.83,165.98
282,1241922627,0.7114,1.3530,-0.0205,33.11,2.01,169.51
283,1241927689,0.7549,1.2827,-0.0244,34.09,1.65,172.32
284,1241932629,0.7842,1.2139,0.0029,31.46,1.10,174.33
285,1241937629,0.7939,1.1421,0.0024,25.43,0.43,175.73
286,1241942629,0.7939,1.0762,-0.0010,16.59,-0.55,176.34
287,1241947629,0.7827,1.0161,0.0107,5.43,-1.65,176.46
288,1241952820,0.7651,0.9482,0.0200,-7.26,-2.80,176.22
289,1241957629,0.7290,0.9004,0.0078,-20.00,-3.84,175.85
290,1241962629,0.7041,0.8584,0.0000,-31.59,-5.24,175.18
291,1241967758,0.6875,0.8203,-0.0122,-40.61,-6.59,174.45
292,1241972629,0.6650,0.7783,-0.0220,-45.18,-7.93,173.84
293,1241977629,0.6440,0.7461,-0.0376,-44.39,-9.21,173.54
294,1241982629,0.6211,0.7114,-0.0439,-38.35,-10.06,173.41
295,1241987629,0.5908,0.6709,-0.0518,-28.11,-10.79,173.48
296,1241992627,0.5625,0.6353,-0.0811,-15.18,-10.85,173.54
297,1241997627,0.5737,0.5869,-0.0791,-1.22,-10.98,173.41
298,1242002629,0.5674,0.5283,-0.0938,12.38,-10.85,173.05
299,1242007629,0.5527,0.4819,-0.1064,24.63,-10.49,172.62
300,1242012627,0.5469,0.4385,-0.1055,34.94,-10.12,171.71
301,1242017629,0.5454,0.3994,-0.1230,42.80,-9.27,170.30
302,1242022627,0.5464,0.3486,-0.1250,47.93,-8.60,168.54
303,1242027818,0.5430,0.3101,-0.1372,50.37,-7.99,166.22
304,1242032628,0.5527,0.2876,-0.1382,50.18,-7.13,163.60
305,1242037629,0.5425,0.2495,-0.1406,47.32,-6.10,160.55
306,1242042761,0.4990,0.2178,-0.1528,41.65,-5.00,157.32
307,1242047629,0.4717,0.1753,-0.1694,33.84,-3.90,154.27
308,1242052629,0.4443,0.1387,-0.1797,25.55,-2.74,151.04
309,1242057629,0.4336,0.0957,-0.1816,19.27,-1.52,147.74
310,1242062629,0.4263,0.0483,-0.1689,16.16,-0.30,144.51
311,1242067627,0.4321,0.0166,-0.1611,16.65,0.98,140.98
312,1242072629,0.4419,-0.0254,-0.1504,19.88,2.56,137.01
313,1242077629,0.4336,-0.0659,-0.1519,24.82,4.27,132.87
314,1242082629,0.4575,-0.0938,-0.1616,30.79,5.79,128.48
315,1242087627,0.4717,-0.1274,-0.1450,37.68,7.56,123.84
316,1242092629,0.4785,-0.1519,-0.1294,45.12,9.15,118.72
317,1242097628,0.4956,-0.1704,-0.1270,51.46,11.10,113.23
318,1242102629,0.5488,-0.1499,-0.1514,54.82,13.11,107.07
319,1242107627,0.5439,-0.1870,-0.1152,55.12,15.12,100.79
320,1242112924,0.5264,-0.1821,-0.1353,51.89,17.32,94.51
321,1242117629,0.5737,-0.1924,-0.1479,45.37,18.96,88.54
322,1242122628,0.5986,-0.1929,-0.1484,37.20,20.67,81.89
323,1242127629,0.6025,-0.1978,-0.1436,28.41,22.32,75.37
324,1242132628,0.6118,-0.2036,-0.1514,20.79,23.66,69.09
325,1242137629,0.6099,-0.2192,-0.1377,15.00,25.24,63.11
326,1242142628,0.5957,-0.2397,-0.1274,11.46,26.77,57.38
327,1242147629,0.6011,-0.2471,-0.1338,9.88,27.99,51.89
328,1242152627,0.6333,-0.2158,-0.1182,10.12,29.21,46.28
329,1242157628,0.6572,-0.2119,-0.1006,11.65,30.37,40.73
330,1242162772,0.6401,-0.2158,-0.1021,13.48,31.46,35.43
331,1242167632,0.6294,-0.2104,-0.0947,14.76,32.74,30.55
332,1242172629,0.6504,-0.1943,-0.0767,15.30,33.41,25.85
333,1242177629,0.6831,-0.1626,-0.0581,15.43,34.33,21.22
334,1242182628,0.7007,-0.1294,-0.0444,14.70,35.18,16.65
335,1242187629,0.7021,-0.0977,-0.0493,12.74,35.85,12.20
336,1242192628,0.7056,-0.0664,-0.0352,10.12,36.22,8.23
337,1242197630,0.7197,-0.0146,-0.0249,8.23,36.46,4.76
338,1242202629,0.7500,0.0249,-0.0083,7.44,36.52,1.71
339,1242207627,0.7627,0.0728,0.0005,8.23,36.59,-0.85
340,1242212629,0.7832,0.1035,0.0171,10.00,36.10,-2.87
341,1242217657,0.7959,0.1426,0.0332,13.29,35.43,-4.27
342,1242222628,0.8057,0.1699,0.0518,17.87,34.45,-5.30
343,1242227629,0.8198,0.2036,0.0859,23.29,33.54,-5.91
344,1242232629,0.8286,0.2275,0.1104,28.05,32.32,-6.40
345,1242237629,0.8345,0.2598,0.1133,30.55,31.22,-6.77
346,1242242627,0.8457,0.2935,0.1279,30.12,29.82,-7.01
347,1242247629,0.8252,0.3145,0.1304,26.34,28.23,-6.77
348,1242252630,0.8003,0.3413,0.1206,19.57,26.89,-6.16
349,1242257628,0.7954,0.3652,0.1191,10.85,25.73,-5.12
350,1242262627,0.7729,0.3867,0.1162,1.83,24.39,-3.60
351,1242267627,0.7319,0.3901,0.1187,-5.85,23.41,-1.71
352,1242272629,0.7100,0.3882,0.1191,-10.73,22.32,0.55
353,1242277629,0.7031,0.3745,0.1250,-11.46,21.28,2.93
354,1242282629,0.6890,0.3335,0.1396,-7.93,20.18,5.43
355,1242287627,0.6636,0.2754,0.1665,-0.91,19.09,7.74
356,1242292630,0.6431,0.1919,0.1890,8.17,17.87,9.63
357,1242297628,0.6294,0.0981,0.2290,18.84,16.34,10.79
358,1242302634,0.6250,0.0000,0.2744,30.30,14.63,10.91
359,1242307628,0.6230,-0.1016,0.3032,41.04,12.56,9.82
360,1242312627,0.6001,-0.2139,0.3232,49.63,10.24,7.50
361,1242317627,0.5806,-0.3325,0.3438,54.09,7.99,3.84
362,1242322627,0.5688,-0.4404,0.3506,54.02,5.61,-1.16
363,1242327727,0.5747,-0.5317,0.3545,49.57,3.35,-7.68
364,1242332629,0.5674,-0.6250,0.3647,40.91,1.10,-15.61
365,1242337629,0.5386,-0.7090,0.3530,28.29,-0.91,-24.63
366,1242342629,0.5210,-0.7827,0.3462,12.68,-2.99,-34.70
367,1242347629,0.5112,-0.8486,0.3403,-4.82,-4.15,-45.79
368,1242352629,0.5117,-0.9014,0.3232,-22.26,-6.65,-57.80
369,1242357628,0.5186,-0.9600,0.3188,-37.56,-8.23,-70.67
370,1242362629,0.5195,-0.9912,0.2764,-48.66,-9.88,-84.27
371,1242367627,0.5815,-0.9863,0.2627,-54.51,-11.77,-98.35
372,1242372629,0.5293,-1.0088,0.2427,-53.29,-12.68,-112.68
373,1242377628,0.4561,-1.0093,0.2197,-44.82,-12.80,-126.65
374,1242382629,0.4233,-0.9912,0.2017,-30.55,-12.44,-140.12
375,1242387664,0.3994,-0.9644,0.1670,-12.80,-12.01,-153.41
376,1242392629,0.3613,-0.9302,0.1416,6.65,-11.46,-166.28
377,1242397628,0.3516,-0.8750,0.1235,26.34,-10.98,-179.09
378,1242402627,0.3755,-0.8008,0.0942,44.51,-10.98,-191.83
379,1242407629,0.3926,-0.7085,0.0615,59.15,-11.04,-204.57
380,1242412628,0.4194,-0.5786,0.0273,69.15,-11.52,-217.26
381,1242417627,0.4292,-0.4502,0.0034,72.87,-11.71,-229.51
382,1242422628,0.3813,-0.3389,-0.0210,69.45,-11.10,-240.61
383,1242427627,0.3110,-0.2070,-0.0713,58.72,-10.06,-250.30
384,1242432627,0.2876,-0.0640,-0.1240,42.26,-8.48,-258.60
385,1242437627,0.3003,0.1011,-0.1616,22.44,-6.10,-265.73
386,1242442631,0.3232,0.2495,-0.2168,2.26,-2.99,-271.52
387,1242447628,0.3354,0.4160,-0.2734,-15.00,0.55,-275.73
388,1242452629,0.3584,0.6050,-0.3086,-27.07,5.06,-278.23
389,1242457627,0.3774,0.7793,-0.3315,-33.23,10.30,-279.15
390,1242462630,0.3145,1.0454,-0.3872,-35.30,16.28,-277.99
391,1242467628,2.2227,5.6191,0.4937,-20.30,26.16,-196.40
392,1242472629,1.2603,10.5010,1.8291,-79.45,25.79,-79.27
393,1242477627,1.2920,5.8896,1.0181,-174.76,16.34,-23.35
394,1242482791,1.4302,2.7944,0.5801,-188.11,17.32,4.70
395,1242487629,1.1309,0.9004,-0.0044,-151.65,22.62,18.78
396,1242492627,1.0454,0.7183,-0.4360,-104.27,25.00,26.59
397,1242497776,1.0771,1.3174,-0.2969,-56.71,27.56,30.98
398,1242502695,1.1118,1.6226,-0.1826,-15.24,30.61,34.33
399,1242507629,1.1362,1.4609,-0.2632,16.40,32.44,37.87
400,1242512629,1.1597,1.1865,-0.1328,35.24,34.02,41.77
401,1242517628,1.1299,1.0879,-0.0215,41.22,35.73,45.67
402,1242522627,1.1167,1.1821,-0.0708,36.22,36.16,49.21
403,1242527627,1.1094,1.2866,-0.0166,22.56,36.10,52.32
404,1242532627,1.0942,1.2910,0.0850,3.41,36.10,55.37
405,1242537629,1.1089,1.2271,0.0679,-17.93,35.55,58.66
406,1242542951,1.1187,1.1855,0.0742,-38.84,34.27,62.32
407,1242547630,1.0752,1.1919,0.1304,-57.13,33.48,66.46
408,1242552629,1.0015,1.2227,0.1235,-71.28,32.56,71.16
409,1242557628,0.9673,1.2500,0.1050,-80.55,31.34,76.40
410,1242562629,0.9312,1.2373,0.1431,-85.49,30.37,82.26
411,1242567627,0.8569,1.2188,0.1587,-87.01,29.33,88.35
412,1242572629,0.7446,1.1860,0.1289,-86.16,27.87,94.82
413,1242577628,0.6948,1.1147,0.1406,-82.80,25.85,101.34
414,1242582628,0.7070,1.0474,0.1743,-75.55,23.54,107.80
415,1242587627,0.7095,0.9653,0.2109,-64.21,21.16,113.96
416,1242592627,0.6973,0.8696,0.2412,-50.55,18.60,119.33
417,1242597627,0.6929,0.7456,0.2739,-36.59,16.10,123.90
418,1242602629,0.6826,0.6313,0.2778,-23.78,12.87,127.44
419,1242607627,0.6812,0.5059,0.2959,-13.17,9.51,130.12
420,1242612629,0.6660,0.3770,0.3198,-4.63,5.91,131.77
421,1242617628,0.6431,0.2505,0.3350,1.95,2.26,132.20
422,1242622627,0.6201,0.1206,0.3477,7.20,-1.59,131.65
423,1242627627,0.5879,-0.0073,0.3525,11.34,-5.37,130.06
424,1242632627,0.5742,-0.1406,0.3457,14.45,-9.21,127.13
425,1242637627,0.5645,-0.2666,0.3462,16.83,-12.99,122.93
426,1242642685,0.5454,-0.3960,0.3457,18.96,-16.71,117.50
427,1242647631,0.5005,-0.5317,0.3408,21.40,-20.24,110.73
428,1242652629,0.4766,-0.6577,0.3442,24.33,-23.60,102.74
429,1242657628,0.4585,-0.7847,0.3345,28.17,-27.07,93.54
430,1242662629,0.4331,-0.8994,0.3354,32.87,-30.43,83.23
431,1242667628,0.4126,-1.0088,0.3462,37.99,-33.54,71.16
432,1242672627,0.4067,-1.1221,0.3291,42.74,-36.77,58.05
433,1242677627,0.3970,-1.2134,0.3169,46.34,-39.70,43.41
434,1242682627,0.3789,-1.3062,0.3052,48.60,-42.38,27.56
435,1242687627,0.3545,-1.3853,0.2871,49.88,-44.70,10.61
436,1242692627,0.3369,-1.4517,0.2637,50.30,-46.71,-7.44
437,1242697630,0.3276,-1.5142,0.2441,49.94,-48.17,-26.52
438,1242702629,0.3052,-1.5586,0.2305,49.27,-49.09,-46.40
439,1242707627,0.2969,-1.5967,0.1973,48.78,-49.82,-67.07
440,1242712627,0.2817,-1.6177,0.1860,49.39,-50.00,-88.29
441,1242717630,0.2744,-1.6079,0.1636,50.55,-49.45,-110.00
442,1242722628,0.2612,-1.5771,0.1411,52.80,-48.41,-132.13
443,1242727627,0.2432,-1.5376,0.0981,55.73,-47.32,-154.33
444,1242732627,0.2246,-1.4565,0.0752,59.39,-45.85,-176.16
445,1242737627,0.2212,-1.3472,0.0498,63.11,-44.21,-198.05
446,1242742627,0.1846,-1.2358,0.0146,65.00,-41.95,-219.21
447,1242748012,0.1196,-1.1172,-0.0278,63.66,-39.70,-239.33
448,1242752629,0.0771,-0.9712,-0.0630,58.78,-37.07,-258.29
449,1242757628,0.0610,-0.8071,-0.1040,50.12,-34.27,-276.04
450,1242762629,0.0352,-0.6416,-0.1421,38.05,-30.98,-292.62
451,1242767628,0.0376,-0.4429,-0.1831,22.93,-27.32,-307.87
452,1242772627,0.0894,-0.2285,-0.2314,5.00,-22.74,-321.95
453,1242777627,6.9888,13.2930,-1.0342,-3.29,-21.04,-257.74
454,1242782627,-0.6572,13.4561,-1.0625,-43.66,-27.38,-56.46
455,1242787628,1.1001,-1.0786,1.4204,-77.44,-29.09,5.30
456,1242792627,1.5723,-7.9561,0.9810,-70.18,-6.46,32.32
457,1242797723,0.9600,-2.2886,-2.0049,-66.77,-9.94,33.90
458,1242802631,0.8340,3.6758,-0.2803,-73.05,-12.13,18.48
459,1242807628,0.7710,4.1089,0.8086,-83.17,-0.61,1.46
460,1242812627,0.9019,0.4258,-0.7007,-92.50,1.34,-9.70
461,1242817629,1.0029,-2.2207,-0.5347,-94.02,-0.98,-13.11
462,1242822629,0.8247,-1.4932,0.4111,-87.56,4.63,-15.49
463,1242827629,0.8062,0.6143,-0.1587,-76.89,7.99,-21.71
464,1242832627,0.8281,1.6816,-0.3760,-65.12,6.77,-29.27
465,1242837627,0.7466,1.0762,0.3203,-53.41,8.72,-34.70
466,1242842630,0.7520,0.0005,0.2300,-43.48,11.10,-36.52
467,1242847629,0.7720,-0.1616,-0.1431,-34.51,9.70,-36.04
468,1242852629,0.7510,0.5430,0.1289,-26.40,8.66,-35.06
469,1242857629,0.7520,1.1592,0.2368,-18.72,9.09,-33.66
470,1242862628,0.7612,1.1758,0.0371,-13.60,7.56,-31.34
471,1242867627,0.7373,0.8345,0.1553,-13.35,5.61,-28.35
472,1242872630,0.6851,0.5972,0.3257,-18.54,4.39,-25.12
473,1242877629,0.6387,0.6411,0.2158,-28.54,2.07,-22.26
474,1242882628,0.5928,0.8306,0.2090,-41.77,-0.98,-19.82
475,1242887629,0.5469,0.9229,0.3462,-56.46,-3.72,-17.50
476,1242892627,0.5376,0.8760,0.3179,-70.79,-6.46,-15.12
477,1242897628,0.5479,0.8115,0.2690,-83.48,-9.88,-12.26
478,1242902629,0.5405,0.8179,0.3271,-93.60,-13.54,-9.39
479,1242907629,0.5342,0.8525,0.3301,-99.94,-16.89,-6.71
480,1242912629,0.5732,0.8633,0.2979,-101.16,-20.91,-4.15
481,1242917628,0.6367,0.8452,0.3354,-97.38,-24.70,-1.65
482,1242922627,0.6870,0.8013,0.3696,-89.15,-28.23,0.61
483,1242927627,0.7183,0.7563,0.3569,-77.80,-31.65,2.32
484,1242932629,0.7427,0.7358,0.3696,-64.76,-35.00,3.60
485,1242937627,0.7583,0.7139,0.3872,-51.83,-38.23,4.63
486,1242942631,0.7612,0.6743,0.3613,-40.55,-41.34,5.24
487,1242947628,0.7651,0.6343,0.3540,-31.40,-44.70,5.79
488,1242952627,0.7588,0.6011,0.3667,-25.37,-47.87,5.91
489,1242957629,0.7446,0.5674,0.3667,-22.93,-50.73,5.91
490,1242962627,0.7383,0.5327,0.3540,-24.76,-53.41,5.30
491,1242967627,0.7544,0.5005,0.3330,-31.10,-55.98,4.39
492,1242972627,0.7676,0.4678,0.3018,-41.46,-58.72,3.11
493,1242977627,0.7646,0.4316,0.2915,-54.57,-60.98,1.34
494,1242982838,0.7578,0.4160,0.2637,-70.00,-62.93,-0.98
495,1242987629,0.7295,0.3906,0.2227,-86.59,-64.33,-3.78
496,1242992628,0.7168,0.3477,0.1768,-102.50,-65.37,-6.95
497,1242997627,0.7520,0.3164,0.1509,-115.67,-66.16,-9.82
498,1243002627,0.7925,0.3149,0.1367,-124.76,-66.22,-12.80
499,1243007627,0.7925,0.3315,0.1440,-129.15,-65.79,-15.91
500,1243012960,0.7700,0.3286,0.1436,-129.09,-64.21,-19.02
501,1243017631,0.7642,0.3198,0.1328,-125.73,-62.07,-22.13
502,1243022628,0.7622,0.3198,0.1118,-120.00,-59.94,-24.88
503,1243027627,0.7783,0.3247,0.1025,-112.38,-57.80,-27.56
504,1243032627,0.7959,0.3228,0.1064,-103.41,-55.55,-30.37
505,1243037627,0.8242,0.3252,0.1035,-93.96,-53.60,-32.80
506,1243042627,0.8535,0.3369,0.1060,-85.00,-51.52,-35.55
507,1243047627,0.8872,0.3550,0.1123,-77.80,-49.70,-38.48
508,1243052627,0.9019,0.3521,0.1060,-74.15,-47.80,-41.65
509,1243057627,0.9175,0.3315,0.0732,-74.82,-46.10,-45.06
510,1243062627,0.9297,0.3174,0.0366,-79.70,-45.30,-48.41
511,1243067629,0.9341,0.3252,0.0181,-88.17,-44.63,-52.01
512,1243072627,0.9570,0.3315,0.0000,-98.96,-44.02,-55.79
513,1243077630,1.0073,0.3721,-0.0112,-110.98,-43.29,-59.94
514,1243082627,1.0547,0.4282,-0.0347,-122.93,-42.56,-64.39
515,1243087627,1.0527,0.4741,-0.0703,-133.29,-41.71,-68.72
516,1243092627,1.0117,0.4956,-0.0889,-140.49,-40.73,-72.32
517,1243097627,0.9224,0.5142,-0.0923,-142.74,-39.21,-74.63
518,1243102627,0.8188,0.5591,-0.1006,-139.63,-36.89,-75.73
519,1243107627,0.7471,0.6094,-0.1011,-132.01,-34.02,-76.04
520,1243112627,0.7178,0.6616,-0.1099,-120.91,-30.67,-75.49
521,1243117628,0.7065,0.7075,-0.1240,-107.74,-26.83,-74.39
522,1243122627,0.6992,0.7549,-0.1343,-94.09,-22.93,-73.11
523,1243127629,0.6826,0.7729,-0.1431,-81.89,-18.72,-71.65
524,1243132628,0.6665,0.7842,-0.1738,-72.50,-14.27,-69.70
525,1243137627,0.6582,0.8022,-0.1934,-66.83,-9.76,-67.80
526,1243142627,0.6655,0.8071,-0.2090,-65.18,-5.43,-66.16
527,1243147627,0.6709,0.8140,-0.2197,-67.44,-1.04,-64.39
528,1243152627,0.7129,0.8384,-0.2383,-73.11,3.48,-62.87
529,1243157629,0.7358,0.8569,-0.2637,-81.34,7.68,-61.40
530,1243162627,0.7305,0.8872,-0.2720,-90.61,11.65,-59.70
531,1243167632,0.7285,0.9321,-0.2646,-99.02,15.67,-57.74
532,1243172628,0.7080,0.9707,-0.2495,-105.55,19.82,-55.24
533,1243177627,0.6694,1.0107,-0.2358,-109.33,24.02,-52.20
534,1243182627,0.6309,1.0425,-0.2329,-110.67,28.48,-48.78
535,1243187627,0.6128,1.0640,-0.2227,-109.76,32.87,-44.82
536,1243192627,0.5977,1.1001,-0.2104,-106.46,36.95,-40.49
537,1243197627,0.3438,1.3057,0.6870,-103.48,41.83,-35.91
538,1243202627,0.5342,1.0977,0.2446,-111.10,45.55,-30.91
539,1243207627,0.6284,0.9780,-0.3525,-117.56,42.32,-24.09
540,1243212627,0.4751,1.2397,0.9624,-120.73,44.70,-17.93
541,1243217629,0.4062,1.2144,0.7368,-121.59,48.11,-12.20
542,1243222631,0.4717,1.1582,0.4878,-120.73,44.09,-6.59
543,1243227698,0.4946,1.1172,1.0229,-119.33,42.01,-1.83
544,1243232629,0.5093,0.9814,1.0884,-116.34,39.88,2.20
545,1243237627,0.5576,0.8696,0.8979,-112.01,35.24,5.49
546,1243242664,0.5649,0.7925,0.9971,-106.40,30.24,7.26
547,1243247631,0.5830,0.7285,1.0542,-99.39,25.73,7.99
548,1243252628,0.6162,0.6890,0.9668,-90.55,20.55,7.99
549,1243257631,0.6494,0.6934,0.9023,-80.06,15.49,7.74
550,1243262627,0.6699,0.7334,0.8364,-67.38,10.91,7.50
551,1243267627,0.6992,0.8291,0.6851,-52.26,6.83,7.44
552,1243272628,0.7441,1.1099,0.4604,-33.41,3.78,7.56
553,1243277629,0.8022,1.5679,0.0679,-9.57,2.62,9.33
554,1243282628,0.8506,1.7539,-0.0903,20.18,5.06,14.21
555,1243288176,0.8325,1.5928,-0.1099,50.49,10.24,22.50
556,1243292632,0.6650,1.5518,-0.1401,76.28,15.55,30.73
557,1243297629,0.6348,1.5405,-0.0361,95.30,20.85,37.62
558,1243302628,0.6812,1.0781,0.1167,108.17,25.98,43.72
559,1243307629,1.1719,0.6128,0.4106,118.72,30.37,49.39
560,1243312627,0.9839,0.3115,0.6699,128.78,34.57,50.30
561,1243317631,0.6553,0.0469,0.8813,137.38,36.34,47.13
562,1243322628,0.1226,0.2339,1.1055,142.44,37.07,40.24
563,1243327945,-0.2100,0.5605,1.3369,137.87,35.49,30.98
564,1243332629,-0.0864,0.6699,1.7056,127.44,34.82,23.54
565,1243337628,0.2642,0.6323,1.0776,119.88,32.80,18.72
566,1243342627,0.4521,0.5093,0.5371,111.77,28.41,17.50
567,1243347628,0.4097,0.6255,0.5254,101.10,26.95,17.80
568,1243352630,0.3677,0.7393,0.5913,89.21,28.54,18.54
569,1243357628,0.4370,0.8589,0.3379,75.18,29.94,20.24
570,1243362629,0.5859,0.8735,0.3032,59.57,31.22,22.32
571,1243367628,0.7603,0.8779,0.4443,42.50,33.84,24.82
572,1243372629,0.8135,0.8901,0.4429,24.15,36.40,26.52
573,1243377628,0.7593,0.8564,0.3916,6.65,37.44,27.68
574,1243382629,0.7241,0.8760,0.3950,-7.99,37.07,27.87
575,1243387628,0.6274,0.8247,0.4775,-16.77,35.91,27.26
576,1243392629,0.5669,0.6348,0.6592,-17.62,34.33,26.71
577,1243397628,0.5596,0.5864,0.5718,-12.80,32.07,26.95
578,1243402629,0.6665,0.6519,0.5571,-5.37,28.66,27.26
579,1243407628,0.7095,0.5352,0.5225,-0.79,24.09,27.44
580,1243412630,0.7056,0.5518,0.5488,1.34,19.09,28.11
581,1243417627,0.6753,0.6953,0.5898,3.72,14.39,28.05
582,1243422627,0.5684,0.7061,0.6533,5.18,11.10,27.01
583,1243427627,0.5566,0.6338,0.7041,5.67,8.90,25.73
584,1243432627,0.5894,0.6143,0.7114,4.09,7.93,23.84
585,1243437627,0.5015,0.5986,0.6792,-2.13,7.68,20.85
586,1243442627,0.4795,0.5366,0.6255,-13.78,7.50,16.71
587,1243447630,0.5244,0.4360,0.7178,-28.05,7.68,12.07
588,1243452634,0.5039,0.3833,0.7280,-42.56,8.84,7.62
589,1243457627,0.4526,0.3965,0.6606,-56.95,9.94,3.23
590,1243462627,0.4385,0.4004,0.6055,-70.30,10.55,-0.67
591,1243467627,0.4370,0.4170,0.6211,-81.46,10.43,-4.09
592,1243472632,0.4155,0.4346,0.6445,-89.27,9.57,-6.89
593,1243477627,0.3955,0.4761,0.6577,-93.11,7.68,-9.15
594,1243482627,0.3481,0.5825,0.6318,-93.41,5.06,-11.52
595,1243487627,0.3496,0.5781,0.6743,-90.24,1.59,-15.00
596,1243492627,0.3188,0.4175,0.7280,-84.39,-2.26,-17.62
597,1243497627,0.3247,0.3374,0.6997,-76.52,-6.10,-18.41
598,1243502627,0.3296,0.3062,0.6685,-67.56,-9.57,-18.05
599,1243507627,0.3120,0.3091,0.7026,-57.87,-12.26,-16.71
600,1243512627,0.3242,0.3848,0.6709,-49.27,-14.27,-15.79
601,1243517627,0.4102,0.4595,0.6084,-41.77,-16.83,-16.10
602,1243522629,0.4731,0.3979,0.6987,-33.84,-19.27,-16.77
603,1243527627,0.4985,0.3760,0.7256,-26.10,-20.61,-16.59
604,1243532627,0.5190,0.4233,0.6685,-19.51,-21.52,-16.04
605,1243537632,0.5454,0.5054,0.6338,-14.76,-22.13,-15.37
606,1243542628,0.6904,0.5820,0.5942,-11.59,-22.44,-14.82
607,1243547629,0.6060,0.7563,0.5640,-9.51,-23.54,-14.57
608,1243552627,0.5874,0.8086,0.6050,-8.78,-25.98,-14.82
609,1243557630,0.7637,0.8320,0.6313,-7.20,-30.00,-14.94
610,1243562629,0.8740,1.0322,0.7944,-5.06,-34.82,-17.01
611,1243567627,0.9185,0.7915,1.0112,-6.22,-39.45,-22.56
612,1243572628,0.9487,0.6982,0.9556,-7.87,-43.66,-26.71
613,1243577629,0.9233,0.7363,0.8247,-11.71,-47.13,-29.33
614,1243582627,0.9136,0.7808,0.8032,-18.35,-49.33,-31.04
615,1243587628,0.9102,0.8105,0.8525,-25.06,-49.70,-31.83
616,1243592629,0.8955,0.8774,0.8706,-29.88,-48.35,-31.46
617,1243597627,0.8369,0.9961,0.8755,-32.07,-45.06,-29.94
618,1243602628,0.7544,1.1187,0.9180,-32.01,-40.18,-27.87
619,1243607629,0.7319,1.1201,0.8799,-31.10,-33.78,-25.00
620,1243612628,0.7520,1.1602,0.8311,-31.22,-27.32,-21.10
621,1243617630,0.7764,1.2085,0.8115,-33.23,-21.40,-16.83
622,1243622628,0.8179,1.1865,0.8296,-37.62,-16.59,-12.38
623,1243627631,0.8486,1.1963,0.8218,-44.33,-13.72,-7.80
624,1243632627,0.8535,1.1650,0.8999,-52.93,-12.50,-3.54
625,1243637628,0.9023,1.1284,0.9512,-62.62,-12.01,0.43
626,1243642629,0.9434,1.0791,0.9717,-73.48,-12.13,3.90
627,1243647630,0.7588,1.0522,0.9595,-85.00,-12.50,7.26
628,1243652629,0.6978,1.0698,0.8843,-95.73,-13.17,10.37
629,1243657627,0.6919,1.0747,0.8569,-103.72,-14.45,13.17
630,1243662628,0.7134,1.0103,0.9463,-108.17,-16.28,16.10
631,1243667630,0.7568,0.9561,1.0815,-110.43,-18.60,18.60
632,1243672628,0.8052,0.9272,1.1729,-110.85,-21.16,20.49
633,1243677629,0.8262,0.9121,1.1831,-110.12,-24.21,21.89
634,1243682627,0.8765,0.9082,1.2402,-109.76,-26.95,22.44
635,1243688004,0.7559,0.9121,1.2612,-110.12,-29.57,21.71
636,1243692629,0.7339,0.8696,1.2471,-109.70,-32.01,20.18
637,1243698143,0.8237,0.8418,1.2466,-107.07,-34.15,18.90
638,1243702629,0.8677,0.8037,1.2998,-101.46,-36.40,17.93
639,1243707627,0.9507,0.7388,1.4590,-94.09,-38.35,16.77
640,1243712629,0.8989,0.6611,1.4209,-87.68,-40.73,15.67
641,1243717627,0.7817,0.6509,1.2881,-82.74,-43.60,14.94
642,1243722629,0.8188,0.7559,1.2354,-79.27,-46.59,14.94
643,1243727632,0.8066,0.8232,1.2485,-75.85,-49.02,15.49
644,1243732629,0.7671,0.7896,1.2856,-73.17,-51.83,16.34
645,1243737628,0.6284,0.7305,1.3594,-72.74,-55.06,16.89
646,1243742629,0.4380,0.6860,1.3389,-75.06,-57.99,16.89
647,1243747728,0.5493,0.6055,1.1641,-79.88,-61.40,17.07
648,1243752629,0.5522,0.5615,1.0537,-85.98,-65.79,17.44
649,1243757627,0.5669,0.5352,1.1187,-91.59,-70.18,17.32
650,1243762627,0.5547,0.4561,1.1758,-93.05,-74.39,17.26
651,1243767627,0.4512,0.3608,1.1733,-88.60,-78.60,17.56
652,1243773346,0.4307,0.3291,1.1816,-78.66,-82.07,17.62
653,1243777629,0.4707,0.3193,1.1479,-65.06,-84.57,17.74
654,1243782627,0.5151,0.3755,1.1470,-50.55,-86.89,17.74
655,1243787652,0.6074,0.2734,1.2173,-39.51,-89.39,18.05
656,1243792629,0.6689,0.3252,1.3135,-35.85,-92.13,18.84
657,1243797627,0.6724,0.4385,1.3730,-43.17,-95.85,18.78
658,1243802628,0.5947,0.4849,1.3140,-60.73,-98.78,17.99
659,1243807629,0.5396,0.5469,1.2407,-84.57,-101.28,17.56
660,1243812627,0.5024,0.6323,1.1851,-109.76,-103.29,17.26
661,1243817628,0.4785,0.6875,1.1606,-131.40,-104.88,17.62
662,1243822634,0.4360,0.7012,1.1460,-146.77,-105.98,18.84
663,1243827628,0.3682,0.7231,1.1357,-155.06,-107.13,21.10
664,1243832629,0.3018,0.7363,1.1157,-157.07,-108.05,24.02
665,1243837629,0.2715,0.6812,1.1338,-154.45,-108.84,27.07
666,1243842628,0.3555,0.6470,1.0342,-151.95,-110.18,30.00
667,1243847629,0.4155,0.6748,1.0796,-149.63,-112.26,32.07
668,1243852627,0.4146,0.6143,1.2104,-146.04,-112.74,33.54
669,1243857628,0.4629,0.6050,1.1265,-140.37,-113.60,35.37
670,1243862627,0.4873,0.6606,1.1157,-134.82,-114.15,37.26
671,1243867627,0.4595,0.6680,1.1050,-130.61,-114.09,38.90
672,1243872627,0.5005,0.6465,1.0596,-128.60,-114.02,40.24
673,1243877685,0.5176,0.6494,1.0557,-129.88,-114.09,40.98
674,1243882627,0.5176,0.6509,1.0112,-132.93,-113.96,41.34
675,1243887633,0.4956,0.6768,0.9355,-139.45,-114.57,41.65
676,1243892627,0.4814,0.7129,0.9136,-144.82,-114.76,42.13
677,1243897628,0.4976,0.7529,0.8848,-147.99,-115.12,43.11
678,1243902629,0.5356,0.7603,0.8569,-148.35,-115.67,44.33
679,1243907627,0.5503,0.7061,0.8901,-146.16,-115.73,45.61
680,1243912631,0.5693,0.6504,0.8418,-142.07,-115.85,46.59
681,1243917627,0.6201,0.6611,0.7354,-136.16,-115.30,46.95
682,1243922627,0.6709,0.6143,0.7510,-129.33,-114.63,46.46
683,1243927999,0.6499,0.4985,0.8257,-123.66,-112.01,45.49
684,1243932971,0.6616,0.4453,0.6987,-120.43,-108.96,44.21
685,1243937629,0.7017,0.4922,0.6040,-120.12,-106.10,42.32
686,1243942628,0.7207,0.5034,0.6528,-121.83,-102.68,40.00
687,1243947627,0.7051,0.4761,0.6665,-124.51,-98.90,37.93
688,1243952629,0.6885,0.4966,0.6416,-128.17,-95.24,36.28
689,1243957629,0.6929,0.5239,0.6021,-134.02,-91.59,35.00
690,1243962627,0.6860,0.5430,0.6284,-141.71,-88.29,34.09
691,1243967631,0.6812,0.5225,0.6431,-150.73,-85.43,33.29
692,1243972627,0.7017,0.5171,0.6787,-160.49,-82.80,32.80
693,1243977627,0.6978,0.5093,0.6333,-168.90,-80.06,32.38
694,1243982629,0.6968,0.5083,0.6221,-175.43,-77.80,32.26
695,1243987627,0.6934,0.4805,0.6675,-178.05,-75.73,32.50
696,1243992627,0.6963,0.4473,0.7031,-175.73,-73.90,32.68
697,1243997630,0.7080,0.3770,0.7241,-166.28,-73.35,32.99
698,1244002627,0.7446,0.3213,1.0146,-153.66,-72.74,32.99
699,1244007627,0.7754,0.2275,0.9507,-142.68,-72.56,32.26
700,1244012627,0.7783,0.1938,0.9189,-136.40,-74.21,30.73
701,1244017629,0.8140,0.1963,1.1211,-137.32,-75.49,27.99
702,1244022628,0.8374,0.1851,1.2222,-143.90,-77.20,24.27
703,1244027627,0.8232,0.1826,1.1572,-153.96,-80.37,20.79
704,1244032627,0.8057,0.2339,1.2769,-165.55,-84.33,17.80
705,1244037629,0.7974,0.2788,1.3154,-177.32,-88.23,15.24
706,1244042629,0.8062,0.3481,1.2407,-186.71,-93.11,13.05
707,1244047627,0.8184,0.4067,1.2344,-191.52,-97.93,11.34
708,1244052629,0.8252,0.4478,1.2427,-191.10,-102.68,10.12
709,1244057627,0.8457,0.4673,1.1709,-186.52,-107.44,9.33
710,1244062629,0.8618,0.4878,1.1108,-179.57,-112.13,9.02
711,1244067627,0.8633,0.5020,1.0845,-172.38,-116.22,8.72
712,1244072629,0.8784,0.5063,1.0176,-166.46,-119.76,8.48
713,1244077627,0.8828,0.5303,0.9653,-163.96,-122.44,8.05
714,1244082628,0.8633,0.5459,0.9058,-164.57,-125.24,7.38
715,1244087627,0.8354,0.5854,0.8389,-168.66,-127.68,6.77
716,1244092627,0.8125,0.6260,0.7891,-174.63,-129.88,6.10
717,1244097627,0.7705,0.6807,0.7515,-180.73,-131.65,5.55
718,1244102628,0.7222,0.7261,0.6997,-185.91,-133.66,5.61
719,1244107631,0.6743,0.7739,0.6362,-190.24,-135.79,6.16
720,1244112627,0.6655,0.8042,0.5854,-192.01,-137.26,6.52
721,1244117627,0.6587,0.8345,0.5234,-192.68,-138.90,7.13
722,1244122627,0.6768,0.8379,0.4644,-190.49,-140.24,7.80
723,1244127630,0.6929,0.8442,0.3809,-184.39,-141.77,8.48
724,1244132629,0.6997,0.8403,0.3306,-179.09,-142.38,8.54
725,1244137628,0.6958,0.8242,0.2407,-171.16,-142.74,8.60
726,1244142629,0.7007,0.8149,0.1953,-166.40,-142.87,8.48
727,1244147627,0.6841,0.7969,0.1099,-160.98,-142.38,8.17
728,1244152629,0.6807,0.7720,0.0376,-158.90,-142.13,8.05
729,1244157628,0.6807,0.7622,-0.0117,-156.95,-141.52,7.74
730,1244162627,0.6899,0.7427,-0.0615,-154.76,-140.30,7.56
731,1244167674,0.6426,0.7339,-0.1172,-151.77,-138.84,7.56
732,1244172628,0.6323,0.7441,-0.1504,-149.94,-137.80,7.93
733,1244177629,0.6211,0.7383,-0.1802,-147.80,-136.65,8.48
734,1244182627,0.5952,0.7368,-0.2075,-145.73,-135.30,9.57
735,1244187630,0.5659,0.7471,-0.2456,-144.88,-134.15,10.73
736,1244192627,0.5547,0.7485,-0.2822,-144.70,-133.41,11.52
737,1244197632,0.5557,0.7319,-0.3164,-142.93,-132.44,12.62
738,1244202628,0.5547,0.7168,-0.3418,-139.76,-131.52,13.48
739,1244207644,0.5493,0.6719,-0.3994,-133.17,-130.06,14.63
740,1244212628,0.5464,0.6445,-0.4341,-128.29,-128.72,15.30
741,1244217629,0.5537,0.6011,-0.4790,-122.13,-126.83,15.79
742,1244222627,0.5791,0.5640,-0.5225,-116.59,-124.57,15.98
743,1244227629,0.5908,0.5400,-0.5605,-112.13,-121.89,15.43
744,1244232629,0.5732,0.5352,-0.5952,-109.70,-119.15,14.82
745,1244237627,0.5796,0.5322,-0.6177,-108.23,-116.34,14.09
746,1244242627,0.5718,0.5410,-0.6392,-107.56,-113.78,13.35
747,1244247629,0.5625,0.5449,-0.6792,-105.98,-111.34,12.74
748,1244252627,0.5688,0.5420,-0.6904,-102.20,-109.27,12.26
749,1244257627,0.5654,0.5425,-0.7129,-95.67,-107.07,11.95
750,1244262628,0.5635,0.5400,-0.7246,-87.50,-105.00,11.71
751,1244267628,0.5508,0.5264,-0.7510,-79.39,-102.93,11.40
752,1244272627,0.5278,0.5024,-0.7700,-72.62,-101.04,11.04
753,1244277627,0.5132,0.4678,-0.8008,-67.07,-99.09,10.43
754,1244282629,0.5044,0.4238,-0.8188,-62.50,-97.13,9.57
755,1244287629,0.4922,0.3843,-0.8374,-57.99,-94.94,8.54
756,1244292628,0.4873,0.3374,-0.8687,-53.23,-92.20,7.13
757,1244297629,0.4683,0.2886,-0.8979,-48.29,-89.70,5.79
758,1244302627,0.4536,0.2388,-0.9277,-43.54,-86.71,4.15
759,1244307630,0.4604,0.2217,-0.9282,-39.27,-83.60,2.32
760,1244312628,0.4629,0.2207,-0.9346,-36.10,-80.49,0.12
761,1244317629,0.4370,0.2173,-0.9419,-34.76,-77.38,-2.13
762,1244322627,0.4146,0.2231,-0.9438,-34.63,-74.51,-4.15
763,1244327627,0.3940,0.2261,-0.9448,-33.90,-71.71,-5.98
764,1244332627,0.3799,0.2285,-0.9419,-31.28,-68.90,-7.68
765,1244337629,0.3569,0.2280,-0.9531,-26.89,-66.40,-8.96
766,1244342629,0.3130,0.2217,-0.9595,-21.52,-64.09,-10.49
767,1244347627,0.2778,0.2070,-0.9814,-16.28,-61.89,-11.89
768,1244352681,0.2598,0.1807,-0.9912,-11.52,-59.82,-13.54
769,1244357629,0.2451,0.1548,-1.0054,-7.38,-57.74,-15.61
770,1244362628,0.2373,0.1396,-1.0215,-3.72,-55.67,-18.23
771,1244367629,0.2314,0.1138,-1.0542,-0.49,-53.35,-21.46
772,1244372629,0.2476,0.0981,-1.0645,3.41,-51.10,-25.06
773,1244377629,0.2700,0.0825,-1.0688,8.05,-48.48,-29.15
774,1244382628,0.2559,0.0825,-1.0811,12.50,-45.98,-33.54
775,1244387629,0.2329,0.0840,-1.0698,16.16,-43.72,-38.11
776,1244392627,0.2144,0.0869,-1.0698,19.33,-41.52,-42.80
777,1244397629,0.2104,0.0942,-1.0747,22.93,-39.45,-47.38
778,1244402628,0.1934,0.1060,-1.0654,27.44,-37.20,-52.20
779,1244407630,0.1641,0.1157,-1.0767,32.07,-35.12,-57.13
780,1244412627,0.1396,0.1260,-1.0903,36.77,-33.23,-62.07
781,1244417629,0.1294,0.1304,-1.1113,41.59,-31.22,-67.20
782,1244422628,0.1245,0.1426,-1.1333,46.83,-29.21,-72.62
783,1244427629,0.1299,0.1494,-1.1489,52.50,-27.20,-78.48
784,1244432627,0.1074,0.1611,-1.1567,58.48,-24.94,-84.57
785,1244437669,0.0996,0.1777,-1.1904,63.66,-23.05,-91.10
786,1244442629,0.0737,0.1924,-1.2266,67.62,-21.04,-97.99
787,1244447629,0.0649,0.1958,-1.2388,71.40,-19.15,-105.37
788,1244452629,0.0322,0.2163,-1.2515,75.43,-17.26,-113.23
789,1244457629,-0.0381,0.2324,-1.2832,78.60,-15.49,-121.40
790,1244462627,-0.1421,0.2656,-1.2925,80.98,-14.02,-129.76
791,1244467629,-0.2422,0.2900,-1.3105,83.48,-13.05,-137.80
792,1244472628,-0.3525,0.3057,-1.3267,87.87,-12.44,-145.49
793,1244477627,-0.4868,0.3052,-1.3335,95.12,-11.95,-152.26
794,1244482629,-0.6138,0.2939,-1.3545,104.82,-11.46,-158.29
795,1244487627,-0.7119,0.2690,-1.4004,116.04,-11.28,-163.66
796,1244492629,-0.7886,0.2339,-1.4600,127.80,-11.22,-168.84
797,1244497629,-0.8779,0.1890,-1.5361,138.41,-11.40,-174.21
798,1244502628,-0.9727,0.1274,-1.6479,148.48,-11.83,-180.24
799,1244507629,-1.0391,0.0605,-1.8013,156.71,-12.93,-187.20
800,1244512628,-1.0688,0.0063,-1.9380,164.33,-13.90,-195.43
801,1244517627,-1.0693,-0.0430,-2.0693,172.99,-14.33,-205.55
802,1244522629,-1.0327,-0.0532,-2.1914,183.54,-14.70,-217.56
803,1244527628,-1.0112,-0.0723,-2.3042,197.13,-14.39,-231.65
804,1244532629,-1.0093,-0.1113,-2.4028,214.82,-13.23,-247.01
805,1244537629,-0.9863,-0.1641,-2.4761,237.93,-10.98,-263.41
806,1244542631,-0.9219,-0.1909,-2.5244,266.59,-4.57,-280.91
807,1244547628,-0.7891,-0.1514,-2.5547,301.04,-2.93,-299.70
808,1244552627,-0.6899,-0.1094,-2.5811,336.04,2.38,-320.55
809,1244557631,-0.6533,-0.0874,-2.6729,363.66,8.41,-342.74
810,1244562629,-0.5605,0.0356,-2.7271,381.40,14.76,-366.89
811,1244567629,-0.4390,0.2349,-2.6909,393.66,21.77,-393.11
812,1244572636,-0.3638,0.4604,-2.6118,405.49,28.90,-421.10
813,1244577627,-0.3882,0.7290,-2.5107,420.12,35.00,-449.45
814,1244582629,-0.4434,1.0122,-2.3779,437.32,39.39,-477.38
815,1244587629,-0.4893,1.3677,-2.1670,453.72,41.95,-504.70
816,1244592628,-0.5640,1.7700,-1.9287,461.04,43.29,-531.22
817,1244597629,-0.8042,2.1265,-1.9165,448.54,42.74,-554.76
818,1244602627,-1.1416,2.5684,-1.7910,417.87,40.61,-573.11
819,1244607627,-1.4043,2.9609,-1.6689,382.62,39.39,-585.37
820,1244612958,-1.6880,3.3838,-1.6123,350.73,41.22,-589.88
821,1244618117,-1.8545,3.6680,-1.5464,339.27,45.30,-585.55
822,1244622629,-1.9419,3.8330,-1.5156,340.61,50.12,-577.07
823,1244627629,-1.9883,3.9858,-1.4678,351.71,57.62,-560.85
824,1244632629,-1.9116,4.1782,-1.4399,365.91,66.59,-540.43
825,1244637629,-1.7227,4.2505,-1.2944,376.04,76.71,-517.26
826,1244642627,-1.5557,4.3638,-1.1313,377.13,86.65,-492.62
827,1244647627,-1.4595,4.5063,-1.0518,367.20,96.83,-467.13
828,1244652628,-1.3096,4.6479,-0.8926,348.96,105.43,-441.46
829,1244657631,-1.2383,4.7485,-0.7451,325.55,113.11,-416.16
830,1244662627,-1.1270,4.8799,-0.6855,301.40,119.76,-390.91
831,1244667630,-1.0708,4.9731,-0.6250,279.39,126.22,-365.24
832,1244672627,-1.0576,5.0308,-0.5664,253.72,134.21,-338.96
833,1244677627,-0.8423,5.0410,-0.7266,217.26,142.62,-312.68
834,1244682627,-0.7036,4.9907,-0.7749,177.26,151.65,-286.46
835,1244687629,-0.5996,4.8750,-0.8066,148.41,162.93,-260.12
836,1244692628,-0.4307,4.7217,-0.8755,136.46,176.10,-233.90
837,1244697629,-0.2593,4.5259,-0.9360,139.21,190.12,-208.90
838,1244702627,-0.1396,4.2876,-0.9448,151.65,204.57,-185.49
839,1244707629,0.0303,4.0278,-0.9194,167.13,219.21,-164.27
840,1244712628,0.2202,3.7471,-0.8506,179.33,233.48,-146.16
841,1244717630,0.3853,3.4766,-0.7441,186.52,247.50,-131.22
842,1244722627,0.5200,3.1689,-0.6445,190.24,262.56,-117.13
843,1244727629,0.5757,3.0010,-0.5547,192.74,271.04,-109.76
844,1244732628,0.5747,2.8447,-0.4048,199.39,279.82,-102.68
845,1244737629,0.4858,2.6787,-0.2036,207.93,286.83,-97.07
846,1244742627,0.4092,2.5557,-0.1162,210.24,290.85,-92.68
847,1244747631,0.3457,2.4556,-0.0034,203.96,291.46,-89.57
848,1244752628,0.2949,2.3335,0.1562,193.29,289.51,-87.01
849,1244757629,0.3003,2.2246,0.2397,180.12,285.79,-85.00
850,1244762629,0.3433,2.1328,0.3071,165.49,279.88,-83.35
851,1244767627,0.4023,2.0332,0.4028,152.74,272.68,-82.07
852,1244772627,0.4590,1.9375,0.4785,143.29,264.45,-80.98
853,1244777627,0.5337,1.8540,0.5527,134.33,253.11,-79.82
854,1244782628,0.5737,1.8140,0.6167,128.29,244.82,-79.02
855,1244787628,0.6157,1.7617,0.6943,119.02,234.09,-77.80
856,1244792629,0.6401,1.7466,0.7681,107.68,222.80,-75.79
857,1244797629,0.6528,1.7236,0.8560,98.11,211.10,-72.26
858,1244802629,0.6699,1.6943,0.9512,94.09,199.76,-66.83
859,1244807628,0.6948,1.6597,1.0220,94.70,189.39,-59.70
860,1244812629,0.7163,1.5962,1.0557,96.22,179.39,-50.79
861,1244817629,0.7007,1.5557,1.0854,96.04,169.88,-40.67
862,1244822696,0.7178,1.4971,1.1333,93.35,160.98,-30.18
863,1244827627,0.7539,1.4351,1.1074,87.32,152.80,-20.00
864,1244832627,0.7568,1.3613,1.0850,77.32,145.00,-10.55
865,1244837627,0.8120,1.2720,1.0708,65.37,137.56,-1.89
866,1244842627,0.8252,1.1938,1.0317,53.29,130.43,5.91
867,1244847627,0.8301,1.1484,0.9937,41.04,123.23,12.87
868,1244852627,0.8599,1.0884,0.9561,26.52,113.60,19.63
869,1244857627,0.8462,1.0693,0.9365,16.71,106.59,23.54
870,1244862934,0.8154,1.0298,0.9038,1.46,95.30,28.60
871,1244867632,0.8105,1.0093,0.8667,-8.90,87.13,31.71
872,1244872628,0.8120,0.9805,0.8115,-20.24,77.32,35.12
873,1244877629,0.8228,0.9473,0.7720,-28.35,67.13,38.23
874,1244882627,0.8232,0.9087,0.7036,-32.50,57.38,41.04
875,1244888039,0.8174,0.8438,0.6255,-31.16,46.04,43.96
876,1244892629,0.8042,0.7773,0.6113,-25.73,39.33,45.85
877,1244897629,0.7798,0.6938,0.5439,-15.30,31.83,48.11
878,1244902629,0.7842,0.6079,0.4858,-4.70,25.49,49.82
879,1244907628,0.7900,0.5210,0.4282,3.29,19.88,50.61
880,1244912629,0.7871,0.4458,0.3989,7.87,14.76,50.43
881,1244917629,0.7930,0.3706,0.3643,8.78,10.00,49.15
882,1244922629,0.7549,0.3135,0.3418,3.96,4.63,46.95
883,1244927628,0.7300,0.2861,0.3384,-2.87,1.22,45.12
884,1244932630,0.6782,0.2793,0.3179,-15.18,-2.99,42.74
885,1244937838,0.6548,0.2856,0.2783,-32.50,-8.54,39.70
886,1244942629,0.6343,0.2964,0.2700,-42.93,-12.13,37.56
887,1244947628,0.5791,0.3096,0.2231,-53.05,-16.28,35.12
888,1244952629,0.5317,0.3306,0.1660,-59.51,-20.00,33.17
889,1244957627,0.5098,0.3423,0.1040,-62.99,-23.54,31.40
890,1244962627,0.5107,0.3481,0.0205,-64.33,-26.34,29.70
891,1244967627,0.5083,0.3384,-0.0630,-63.84,-28.54,28.05
892,1244972627,0.5171,0.3281,-0.1313,-61.77,-29.76,26.52
893,1244977627,0.5073,0.2993,-0.1772,-57.62,-30.67,24.94
894,1244982627,0.5127,0.2759,-0.2188,-51.40,-30.98,23.23
895,1244987632,0.5347,0.2593,-0.2656,-44.27,-30.98,21.16
896,1244992628,0.5459,0.2520,-0.2900,-37.87,-30.61,18.72
897,1244997629,0.5361,0.2427,-0.3198,-33.96,-30.18,15.79
898,1245002628,0.5190,0.2505,-0.3276,-33.48,-29.63,12.74
899,1245007629,0.4902,0.2646,-0.3364,-36.22,-28.84,9.39
900,1245012630,0.4673,0.2832,-0.3320,-41.59,-28.05,6.40
901,1245017627,0.4116,0.3169,-0.3325,-51.16,-26.95,3.29
902,1245022630,0.3760,0.3384,-0.3442,-59.09,-25.91,1.65
903,1245027628,0.3311,0.3662,-0.3555,-70.18,-24.51,0.24
904,1245032629,0.3003,0.3813,-0.3662,-81.52,-22.87,-0.49
905,1245037627,0.2734,0.4019,-0.3906,-92.32,-20.85,-0.79
906,1245042627,0.2632,0.4180,-0.4263,-102.87,-18.60,-0.73
907,1245047627,0.2739,0.4297,-0.4663,-112.74,-15.79,-0.55
908,1245052627,0.2871,0.4370,-0.5146,-120.79,-12.74,-0.37
909,1245057629,0.3018,0.4487,-0.5361,-126.59,-9.33,-0.30
910,1245062628,0.3208,0.4624,-0.5771,-130.00,-5.49,-0.67
911,1245067651,0.3447,0.4863,-0.6030,-130.85,-1.71,-1.22
912,1245072629,0.3413,0.5093,-0.6060,-128.96,2.20,-2.07
913,1245077628,0.3521,0.5352,-0.5928,-125.00,6.22,-3.23
914,1245082629,0.3574,0.5659,-0.5703,-120.49,10.49,-4.70
915,1245087699,0.3560,0.5854,-0.5513,-117.68,14.63,-6.34
916,1245092630,0.3560,0.5894,-0.5190,-117.32,18.78,-7.93
917,1245097629,0.3374,0.5967,-0.4727,-120.00,22.62,-9.39
918,1245102628,0.3057,0.6128,-0.4448,-126.77,25.91,-10.18
919,1245107629,0.2754,0.6309,-0.4058,-137.26,28.90,-10.43
920,1245112629,0.2339,0.6646,-0.3730,-150.61,31.34,-10.37
921,1245117629,0.2104,0.6851,-0.3721,-164.88,33.29,-10.24
922,1245122629,0.2373,0.6938,-0.3701,-177.80,34.63,-9.76
923,1245127627,0.2671,0.7051,-0.3755,-188.05,35.98,-9.33
924,1245132629,0.2993,0.7129,-0.3945,-194.82,37.38,-9.09
925,1245137629,0.3521,0.7212,-0.4175,-198.48,38.90,-9.27
926,1245142628,0.3867,0.7290,-0.4409,-199.27,40.61,-10.06
927,1245147627,0.4155,0.7388,-0.4707,-197.20,42.50,-11.52
928,1245152627,0.4141,0.7598,-0.4688,-192.13,44.45,-13.48
929,1245157628,0.4004,0.7798,-0.4531,-183.78,46.83,-15.73
930,1245162629,0.3892,0.7910,-0.4321,-172.44,49.39,-18.23
931,1245167627,0.3711,0.7754,-0.4062,-159.15,52.13,-20.37
932,1245172629,0.3613,0.7637,-0.3735,-145.43,54.63,-22.26
933,1245177629,0.3418,0.7402,-0.3442,-133.17,57.13,-23.60
934,1245182628,0.3149,0.7368,-0.3057,-124.09,58.90,-24.63
935,1245187916,0.3042,0.7402,-0.2593,-119.70,60.24,-25.55
936,1245192628,0.3140,0.7314,-0.2344,-120.91,60.61,-26.22
937,1245197631,0.3188,0.7412,-0.1885,-127.01,60.55,-26.89
938,1245202629,0.3140,0.7529,-0.1655,-136.77,59.94,-27.56
939,1245207628,0.3359,0.7729,-0.1333,-148.78,58.90,-28.41
940,1245212629,0.3506,0.7998,-0.1001,-160.73,57.62,-29.51
941,1245217629,0.3525,0.8247,-0.0723,-170.73,56.34,-30.73
942,1245222629,0.3457,0.8486,-0.0449,-177.62,55.37,-32.13
943,1245227628,0.3550,0.8755,-0.0386,-179.94,54.51,-33.66
944,1245232629,0.3813,0.8940,-0.0166,-177.13,53.78,-35.30
945,1245237629,0.3770,0.9146,0.0068,-169.63,53.54,-37.13
946,1245242629,0.3467,0.9287,0.0171,-158.60,53.17,-38.90
947,1245247628,0.3203,0.9253,0.0205,-145.49,52.87,-40.73
948,1245252629,0.2944,0.9199,0.0303,-131.46,52.38,-42.38
949,1245257629,0.2661,0.8911,0.0522,-118.11,51.95,-43.96
950,1245262630,0.2368,0.8496,0.0713,-106.65,51.16,-45.12
951,1245267627,0.2002,0.8218,0.0947,-98.41,50.37,-46.04
952,1245272627,0.1953,0.7920,0.1201,-94.57,49.51,-46.89
953,1245277629,0.2339,0.7764,0.1309,-95.73,48.35,-47.87
954,1245282628,0.2739,0.7671,0.1592,-101.40,46.95,-49.39
955,1245287627,0.3247,0.7661,0.1670,-111.10,45.55,-51.46
956,1245292686,0.3711,0.7817,0.1787,-123.96,43.96,-54.02
957,1245297629,0.4014,0.8071,0.1968,-138.78,42.32,-57.13
958,1245302628,0.4204,0.8354,0.2021,-153.90,40.73,-60.73
959,1245307629,0.4458,0.8467,0.2056,-167.38,39.51,-64.63
960,1245312627,0.4731,0.8774,0.2261,-177.20,38.48,-68.54
961,1245317629,0.4868,0.8975,0.2349,-182.62,38.23,-72.26
962,1245322628,0.4771,0.9077,0.2183,-183.54,38.29,-75.73
963,1245327630,0.4561,0.9307,0.2183,-180.24,38.54,-78.72
964,1245332627,0.4385,0.9341,0.2144,-173.05,38.84,-81.22
965,1245337630,0.3975,0.9341,0.2100,-162.50,39.21,-83.35
966,1245342628,0.3335,0.9297,0.2026,-149.39,39.57,-84.88
967,1245347627,0.2793,0.9175,0.2065,-134.94,39.57,-85.67
968,1245352627,0.2437,0.8994,0.1963,-120.06,39.21,-85.85
969,1245357631,0.2065,0.8882,0.2139,-105.73,38.54,-85.55
970,1245362631,0.1982,0.8887,0.2222,-93.05,37.74,-84.88
971,1245367629,0.2275,0.8931,0.2319,-82.99,36.34,-84.33
972,1245372629,0.2471,0.9087,0.2407,-76.59,34.76,-84.09
973,1245377627,0.2822,0.9243,0.2559,-73.72,32.74,-84.45
974,1245382629,0.3281,0.9341,0.2734,-73.66,30.73,-85.37
975,1245387629,0.3530,0.9497,0.2915,-76.28,28.72,-86.65
976,1245392629,0.3979,0.9546,0.3022,-81.04,26.71,-88.60
977,1245397628,0.4429,0.9507,0.3110,-86.59,25.00,-90.79
978,1245402629,0.4746,0.9575,0.3110,-92.56,23.54,-93.11
979,1245407629,0.5049,0.9546,0.3149,-98.11,22.38,-95.91
980,1245412629,0.5269,0.9775,0.3159,-102.62,21.34,-98.84
981,1245417628,0.5435,0.9795,0.3003,-105.85,20.73,-102.01
982,1245422629,0.5435,0.9937,0.2817,-107.44,20.24,-105.06
983,1245427629,0.5405,1.0176,0.2646,-107.26,19.88,-108.23
984,1245432629,0.5273,1.0308,0.2476,-104.76,19.33,-111.04
985,1245437707,0.5015,1.0503,0.2402,-99.82,18.84,-113.35
986,1245442629,0.4712,1.0645,0.2158,-92.32,18.17,-115.12
987,1245447629,0.4351,1.0645,0.2178,-81.89,17.32,-115.91
988,1245452629,0.3945,1.0679,0.2241,-68.60,16.22,-115.67
989,1245457628,0.3667,1.0713,0.2373,-53.48,15.06,-114.57
990,1245462629,0.3530,1.0820,0.2505,-37.99,14.21,-112.87
991,1245467629,0.3491,1.1035,0.2607,-23.90,13.05,-111.04
992,1245472630,0.3779,1.1113,0.2627,-12.50,12.01,-109.09
993,1245477627,0.4160,1.1216,0.2593,-5.00,10.91,-107.32
994,1245482627,0.4487,1.1309,0.2642,-1.52,10.06,-106.10
995,1245487627,0.4795,1.1270,0.2676,-2.26,9.45,-104.94
996,1245492627,0.5244,1.1226,0.2651,-6.83,9.09,-104.02
997,1245497628,0.5503,1.1382,0.2588,-14.63,9.15,-103.48
998,1245502630,0.5591,1.1504,0.2554,-24.88,9.21,-102.93
999,1245507627,0.5669,1.1636,0.2471,-35.85,9.39,-102.26
1000,1245512629,0.5742,1.1943,0.2437,-46.16,9.63,-101.65
1001,1245517631,0.5815,1.2153,0.2363,-54.51,9.70,-100.67
1002,1245522628,0.5913,1.2378,0.2266,-60.18,9.57,-99.51
1003,1245527629,0.5957,1.2554,0.2227,-62.74,9.39,-98.05
1004,1245532628,0.5894,1.2651,0.2163,-62.26,8.90,-95.98
1005,1245537624,0.5776,1.2715,0.1992,-59.39,8.54,-93.72
1006,1245542628,0.5757,1.2803,0.1768,-54.88,7.87,-91.16
1007,1245547629,0.5796,1.3022,0.2017,-49.21,5.55,-88.48
1008,1245552627,0.5981,1.2896,0.2065,-42.62,1.04,-85.61
1009,1245557629,0.6074,1.2754,0.2471,-34.57,4.76,-82.74
1010,1245562628,0.6455,1.2544,0.2227,-26.83,3.72,-80.12
1011,1245567627,0.6909,1.2246,0.2471,-18.90,2.07,-77.74
1012,1245572703,0.7188,1.2188,0.2607,-9.09,0.67,-75.18
1013,1245577627,0.7358,1.2031,0.2471,-2.62,0.55,-73.48
1014,1245582627,0.7485,1.2124,0.2705,5.67,1.10,-71.28
1015,1245587627,0.7520,1.2158,0.2861,12.80,1.10,-68.90
1016,1245592834,0.7295,1.2261,0.2729,19.63,0.30,-65.91
1017,1245597630,0.7085,1.2402,0.2686,22.56,0.06,-63.60
1018,1245602629,0.6919,1.2505,0.2744,24.45,-0.24,-60.49
1019,1245607629,0.6689,1.2607,0.2661,23.96,-0.49,-57.20
1020,1245612629,0.6494,1.2842,0.2412,21.04,-0.73,-53.90
1021,1245617629,0.6504,1.3101,0.2324,16.10,-0.67,-50.61
1022,1245622627,0.6704,1.3169,0.2134,9.51,-0.79,-47.20
1023,1245627629,0.6675,1.3325,0.1880,2.20,-0.73,-43.66
1024,1245632628,0.6426,1.3540,0.1704,-5.12,-0.49,-39.94
1025,1245637628,0.6196,1.3745,0.1533,-11.46,0.12,-36.04
1026,1245642629,0.6572,1.4199,0.1333,-16.04,1.59,-31.52
1027,1245647627,0.6885,1.4800,0.0850,-17.93,3.29,-26.40
1028,1245652627,0.6416,1.4966,0.0757,-17.44,2.32,-20.91
1029,1245657831,0.6338,1.4795,0.0811,-12.99,3.84,-13.90
1030,1245662648,0.6504,1.4502,0.0430,-8.17,5.24,-9.09
1031,1245667628,0.6514,1.4468,0.0508,-0.67,6.83,-3.05
1032,1245672628,0.6440,1.4229,0.0498,9.15,9.02,4.21
1033,1245677631,0.6162,1.3779,0.0986,15.30,10.30,8.90
1034,1245682627,0.5566,1.3506,0.1079,22.13,12.32,14.15
1035,1245687629,0.5679,1.2261,0.2515,25.91,13.35,18.66
1036,1245692627,0.5464,1.1279,0.2510,28.48,15.12,22.62
1037,1245697629,0.4878,1.0479,0.2158,29.94,15.43,25.91
1038,1245702629,0.4922,1.0410,0.3179,30.61,15.61,28.66
1039,1245707829,0.4536,1.0278,0.3545,27.50,16.28,31.28
1040,1245712629,0.4360,1.0171,0.3237,23.90,16.83,32.74
1041,1245717629,0.4048,0.9639,0.3662,17.80,17.20,34.76
1042,1245722629,0.3809,0.9272,0.4189,10.79,17.87,36.65
1043,1245727630,0.3569,0.8818,0.5146,2.62,18.96,38.11
1044,1245732629,0.3467,0.8701,0.5645,-7.01,19.70,39.39
1045,1245737629,0.3359,0.8760,0.4668,-16.28,19.94,40.55
1046,1245742629,0.3267,0.8848,0.4072,-22.26,20.85,41.89
1047,1245747988,0.3398,0.9492,0.3408,-25.49,22.93,43.78
1048,1245752629,0.3413,0.9858,0.3218,-26.04,24.39,45.12
1049,1245757629,0.3462,1.0347,0.2480,-24.21,26.46,47.01
1050,1245762629,0.3311,1.0640,0.2358,-20.06,29.02,48.96
1051,1245768005,0.3521,1.0791,0.2441,-10.98,32.87,51.52
1052,1245772629,0.3667,1.0518,0.2236,-4.21,35.18,53.23
1053,1245777629,0.3867,1.0786,0.2876,5.67,38.41,55.24
1054,1245782629,0.4927,1.2188,0.2383,15.85,41.34,57.13
1055,1245787628,0.4717,1.2612,0.2778,27.26,44.63,59.45
1056,1245792629,0.4321,1.2041,0.2573,38.23,47.99,61.95
1057,1245797629,0.4141,1.1895,0.1958,47.80,50.91,64.45
1058,1245802629,0.4297,1.2227,0.2476,55.00,53.78,66.59
1059,1245807674,0.4316,1.2480,0.2842,59.27,56.89,68.23
1060,1245812630,0.4214,1.2319,0.2881,60.30,59.94,69.76
1061,1245818080,0.4087,1.2217,0.2905,57.87,62.13,70.61
1062,1245822629,0.4209,1.1914,0.3672,53.78,63.41,71.16
1063,1245827629,0.4175,1.2026,0.3696,46.40,65.18,71.77
1064,1245832629,0.3633,1.0786,0.4727,36.71,66.28,72.20
1065,1245837629,0.3843,1.0229,0.5322,24.39,66.77,71.95
1066,1245842628,0.3525,1.0503,0.4966,11.46,66.40,71.16
1067,1245847629,0.2964,1.0342,0.4927,0.55,66.40,71.16
1068,1245852627,0.2993,0.9951,0.5205,-7.62,66.65,71.59
1069,1245857629,0.2666,0.9980,0.5581,-13.23,66.77,72.07
1070,1245862630,0.2441,0.9907,0.5547,-16.77,66.65,72.74
1071,1245867627,0.2192,0.9907,0.6099,-17.74,66.40,74.09
1072,1245872627,0.1714,0.9819,0.5986,-16.34,66.10,75.49
1073,1245877627,0.1338,0.9829,0.5796,-12.26,65.61,77.13
1074,1245882629,0.1196,0.9785,0.6230,-5.73,65.55,78.96
1075,1245887629,0.1079,0.9521,0.6465,1.83,65.30,80.73
1076,1245892627,0.0933,0.9185,0.6426,9.88,64.57,82.38
1077,1245897627,0.0913,0.8945,0.6631,17.50,63.78,83.84
1078,1245902627,0.1060,0.8892,0.6909,24.57,62.87,84.88
1079,1245908093,0.1250,0.8877,0.6792,31.71,61.59,86.04
1080,1245912629,0.1235,0.9058,0.6533,35.49,60.91,86.10
1081,1245917629,0.0962,0.9951,0.7124,38.96,60.43,86.34
1082,1245922629,0.1226,0.8311,0.5649,38.66,59.33,86.95
1083,1245927708,0.2178,0.8130,0.5518,37.62,58.23,87.26
1084,1245932629,0.2183,0.9888,0.5620,37.26,59.09,86.77
1085,1245937629,0.2095,1.0210,0.4917,36.04,59.09,86.59
1086,1245942628,0.2466,0.9736,0.5415,34.15,59.02,86.59
1087,1245947629,0.2764,0.9287,0.5312,32.50,59.63,86.22
1088,1245952627,0.3066,0.9062,0.5039,30.49,60.24,85.18
1089,1245957629,0.3276,0.8838,0.5410,27.93,60.85,83.41
1090,1245962628,0.3286,0.8848,0.5815,23.72,61.34,81.71
1091,1245967629,0.3257,0.8989,0.5845,18.54,61.59,80.00
1092,1245972679,0.3325,0.8940,0.5869,12.99,61.71,78.41
1093,1245977627,0.3413,0.8711,0.6016,7.87,61.34,77.01
1094,1245982629,0.3604,0.8574,0.6284,3.48,61.04,75.67
1095,1245987629,0.3838,0.8560,0.6362,0.06,60.43,74.33
1096,1245992631,0.4102,0.8511,0.6558,-2.13,59.76,73.11
1097,1245997627,0.4321,0.8359,0.6655,-2.62,59.02,72.07
1098,1246002629,0.4526,0.8193,0.6782,-1.52,58.05,71.16
1099,1246007628,0.4600,0.7998,0.6851,0.79,57.13,70.12
1100,1246012629,0.4629,0.7754,0.7119,3.78,56.16,68.96
1101,1246017629,0.4570,0.7427,0.7192,7.26,54.88,67.74
1102,1246022629,0.4487,0.7095,0.7285,10.91,53.48,66.40
1103,1246027628,0.4463,0.6924,0.7515,14.27,52.01,64.82
1104,1246032629,0.4492,0.6646,0.7729,17.13,50.43,63.11
1105,1246037629,0.4473,0.6177,0.7920,19.57,48.84,61.40
1106,1246042629,0.4414,0.5854,0.7842,21.83,47.38,59.57
1107,1246047628,0.4326,0.5825,0.7603,23.78,45.73,57.68
1108,1246052629,0.4253,0.6035,0.7266,25.06,44.21,55.98
1109,1246057627,0.4146,0.6304,0.6670,25.18,42.99,54.27
1110,1246062629,0.4067,0.6382,0.6074,24.15,42.20,53.11
1111,1246067628,0.4004,0.6455,0.5562,22.13,41.52,52.01
1112,1246072662,0.4023,0.6450,0.5190,19.63,41.22,51.40
1113,1246077627,0.4160,0.6323,0.5068,17.26,41.10,51.04
1114,1246082628,0.4351,0.6265,0.5010,15.30,41.22,50.79
1115,1246087630,0.4370,0.5659,0.5654,13.54,41.16,50.55
1116,1246092716,0.4487,0.5483,0.6147,11.10,41.10,50.30
1117,1246097648,0.4546,0.5635,0.5703,8.78,41.04,49.88
1118,1246102627,0.4648,0.5703,0.5981,6.46,40.55,49.45
1119,1246108336,0.4517,0.5620,0.6108,4.15,40.12,49.09
1120,1246112630,0.4375,0.5850,0.5508,2.80,39.88,49.02
1121,1246117629,0.4121,0.6089,0.5430,1.59,39.39,48.96
1122,1246122630,0.4062,0.6035,0.5400,0.30,39.33,48.96
1123,1246127629,0.3984,0.5889,0.5366,-0.73,39.33,48.90
1124,1246132627,0.3984,0.5825,0.5522,-1.83,39.27,48.84
1125,1246137627,0.3843,0.5728,0.5796,-2.68,39.33,48.66
1126,1246142733,0.3696,0.5566,0.5967,-3.90,39.51,48.41
1127,1246147630,0.3696,0.5312,0.6157,-4.63,39.57,48.17
1128,1246152627,0.3667,0.5195,0.6348,-5.61,39.57,47.99
1129,1246157629,0.3564,0.5176,0.6440,-6.59,39.45,47.74
1130,1246162627,0.3604,0.5156,0.6870,-7.74,39.39,47.20
1131,1246168046,0.3784,0.5122,0.7256,-8.72,39.02,46.59
1132,1246172629,0.3857,0.5151,0.7344,-8.84,38.60,46.10
1133,1246177628,0.4097,0.5229,0.7446,-8.78,37.62,45.55
1134,1246182627,0.4404,0.5400,0.7847,-8.05,36.46,44.88
1135,1246187627,0.4590,0.5386,0.8125,-6.40,35.12,44.15
1136,1246192627,0.4653,0.5581,0.7949,-4.02,33.41,43.11
1137,1246197630,0.4971,0.5732,0.7764,-1.89,31.40,42.07
1138,1246202627,0.5078,0.5840,0.7476,-0.98,29.51,40.98
1139,1246207627,0.5137,0.5854,0.7285,-0.91,27.56,39.82
1140,1246212629,0.5068,0.5933,0.7202,-1.65,25.67,38.60
1141,1246217630,0.5034,0.5815,0.7422,-2.56,23.90,37.26
1142,1246222629,0.5132,0.5991,0.7524,-3.35,22.07,36.16
1143,1246227629,0.5156,0.6079,0.7510,-3.66,20.30,34.82
1144,1246232628,0.5000,0.6270,0.7622,-2.74,18.72,33.78
1145,1246237629,0.5073,0.6406,0.7734,-0.61,17.01,32.74
1146,1246242627,0.5044,0.6382,0.7686,2.87,15.73,31.95
1147,1246247629,0.5010,0.6440,0.7563,7.32,14.21,31.28
1148,1246252628,0.4956,0.6377,0.7432,12.32,13.11,30.79
1149,1246257627,0.5034,0.6338,0.7295,17.50,11.83,30.12
1150,1246262629,0.5103,0.6270,0.7246,22.13,11.10,29.33
1151,1246267629,0.5156,0.6211,0.7256,26.10,10.12,28.35
1152,1246272627,0.5391,0.6177,0.7227,28.54,9.45,26.89
1153,1246277627,0.5684,0.6089,0.7241,29.33,8.23,25.12
1154,1246282631,0.5972,0.5996,0.7231,28.48,7.01,23.23
1155,1246287628,0.6108,0.5801,0.7061,25.79,5.37,20.91
1156,1246292628,0.6328,0.5869,0.6807,21.89,3.23,18.29
1157,1246297629,0.6548,0.5127,0.7236,17.62,0.79,15.98
1158,1246302631,0.6675,0.5391,0.7051,12.20,-2.44,13.11
1159,1246307629,0.6528,0.5298,0.6309,8.72,-5.06,11.46
1160,1246312627,0.6377,0.5718,0.7046,4.21,-7.68,9.39
1161,1246317631,0.6211,0.5903,0.6958,0.06,-9.76,7.20
1162,1246322627,0.6240,0.5796,0.6719,-3.72,-12.44,5.00
1163,1246327629,0.6216,0.5850,0.6763,-6.95,-14.76,2.87
1164,1246332627,0.6152,0.5864,0.6851,-9.76,-17.07,0.91
1165,1246337631,0.6108,0.5835,0.6636,-11.89,-19.33,-0.79
1166,1246342627,0.6016,0.5781,0.6489,-13.66,-21.46,-2.01
1167,1246347627,0.6016,0.5894,0.6465,-15.24,-23.17,-3.29
1168,1246352630,0.5977,0.6064,0.6284,-16.89,-24.51,-4.21
1169,1246357628,0.6001,0.6201,0.6201,-18.41,-25.67,-5.24
1170,1246362627,0.5967,0.6216,0.6177,-20.06,-26.83,-6.16
1171,1246367629,0.5840,0.6265,0.6143,-20.98,-27.44,-6.71
1172,1246372628,0.5889,0.6289,0.6133,-21.95,-28.35,-7.32
1173,1246377627,0.5762,0.6392,0.6157,-22.87,-29.45,-8.11
1174,1246382628,0.5796,0.6523,0.6162,-23.35,-30.24,-8.48
1175,1246387627,0.5845,0.6743,0.6182,-24.02,-31.22,-9.09
1176,1246392629,0.5884,0.6846,0.6187,-24.94,-32.01,-9.76
1177,1246397629,0.6030,0.6787,0.6133,-26.28,-33.29,-10.37
1178,1246402627,0.6113,0.6719,0.6006,-27.74,-34.33,-10.91
1179,1246407629,0.6089,0.6846,0.6235,-29.45,-35.49,-11.34
1180,1246412628,0.6108,0.6919,0.6113,-31.22,-36.28,-11.65
1181,1246417631,0.5923,0.6885,0.6035,-32.87,-37.01,-12.01
1182,1246422627,0.5791,0.6738,0.6094,-34.51,-37.74,-12.26
1183,1246428086,0.5591,0.6675,0.6235,-35.98,-38.05,-12.56
1184,1246432744,0.5532,0.6665,0.6260,-36.83,-38.35,-12.80
1185,1246438092,0.5488,0.6704,0.6230,-37.62,-38.17,-13.17
1186,1246442696,0.5513,0.6768,0.6221,-38.17,-37.87,-13.23
1187,1246447809,0.5547,0.6836,0.6284,-39.09,-37.32,-13.41
1188,1246452629,0.5615,0.6919,0.6313,-39.70,-36.89,-13.35
1189,1246457629,0.5669,0.6978,0.6416,-40.43,-36.52,-13.41
1190,1246462629,0.5630,0.7109,0.6572,-41.22,-36.34,-13.54
1191,1246467628,0.5503,0.7266,0.6797,-42.07,-36.22,-13.78
1192,1246472629,0.5425,0.7373,0.6982,-42.99,-36.22,-14.27
1193,1246477629,0.5342,0.7446,0.7183,-43.90,-36.22,-14.88
1194,1246482629,0.5518,0.7505,0.7397,-45.00,-36.16,-15.43
1195,1246487629,0.5537,0.7495,0.7397,-46.10,-36.10,-16.10
1196,1246492629,0.5488,0.7441,0.7500,-47.44,-35.98,-16.71
1197,1246497627,0.5508,0.7393,0.7651,-48.96,-35.98,-17.07
1198,1246502629,0.5474,0.7319,0.7832,-50.61,-35.91,-17.68
1199,1246507628,0.5488,0.7271,0.7861,-52.68,-35.85,-18.11
1200,1246512629,0.5522,0.7241,0.8008,-54.15,-35.91,-18.41
1201,1246517627,0.5576,0.7153,0.8174,-55.91,-36.04,-18.72
1202,1246522631,0.5439,0.7153,0.8364,-57.32,-36.10,-19.27
1203,1246527643,0.5322,0.7139,0.8672,-58.35,-36.34,-19.94
1204,1246532628,0.5220,0.7065,0.8813,-58.60,-36.52,-20.98
1205,1246537629,0.5107,0.7021,0.8960,-58.17,-37.13,-22.01
1206,1246542628,0.5049,0.7012,0.9033,-56.95,-37.68,-23.05
1207,1246547629,0.5059,0.7153,0.9370,-55.43,-38.11,-24.02
1208,1246552627,0.5142,0.7305,0.9561,-53.72,-38.60,-25.06
1209,1246557630,0.5317,0.7417,0.9844,-52.20,-39.51,-25.98
1210,1246562628,0.5366,0.7593,1.0088,-51.28,-40.43,-26.95
1211,1246567629,0.5444,0.7715,1.0425,-51.10,-41.40,-27.68
1212,1246572629,0.5586,0.7769,1.0576,-51.65,-42.80,-28.35
1213,1246577627,0.5625,0.7910,1.0811,-52.68,-44.21,-28.60
1214,1246582627,0.5581,0.7988,1.1094,-54.33,-45.79,-28.60
