# skilleye imu stream v1
# device=xiao_esp32c6 imu=mpu6050 addr=0x68
# rate_hz=200 accel_range_g=16 gyro_range_dps=2000 dlpf_hz=94
# units: accel in g, gyro in deg/s, t_us in microseconds since boot (monotonic)
# no shared clock with the camera -- tap the racket once before each take
# so both recordings share a spike to align on
seq,t_us,ax,ay,az,gx,gy,gz
0,1499257629,0.7378,-0.6143,0.3872,-9.33,-10.61,-16.16
1,1499262633,0.7407,-0.6113,0.3911,-8.17,-10.73,-15.79
2,1499267629,0.7339,-0.6123,0.3911,-6.28,-10.85,-15.24
3,1499272628,0.7266,-0.6074,0.3945,-4.45,-11.10,-14.57
4,1499277629,0.7227,-0.5962,0.3945,-2.87,-11.34,-13.90
5,1499282628,0.7246,-0.5928,0.3872,-1.46,-11.59,-13.17
6,1499287629,0.7188,-0.5854,0.3882,-0.12,-11.89,-12.38
7,1499292629,0.7168,-0.5815,0.3882,1.10,-12.38,-11.34
8,1499297630,0.7061,-0.5811,0.3882,2.07,-12.80,-10.55
9,1499302627,0.7080,-0.5879,0.3706,2.87,-13.29,-9.63
10,1499307629,0.6987,-0.5894,0.3721,3.41,-13.90,-8.60
11,1499312628,0.6870,-0.5889,0.3652,3.11,-14.51,-7.87
12,1499317629,0.6807,-0.5850,0.3647,1.71,-15.18,-7.20
13,1499322628,0.6787,-0.5811,0.3608,-0.55,-15.67,-6.52
14,1499327630,0.6797,-0.5884,0.3535,-1.77,-16.10,-6.04
15,1499332629,0.6763,-0.5874,0.3511,-2.38,-16.40,-5.43
16,1499337628,0.6655,-0.5767,0.3442,-2.32,-16.52,-5.06
17,1499342629,0.6558,-0.5776,0.3418,-1.40,-16.46,-4.51
18,1499347627,0.6562,-0.5693,0.3330,-0.06,-16.52,-3.84
19,1499352627,0.6616,-0.5469,0.3237,1.71,-16.28,-3.05
20,1499357629,0.6621,-0.5454,0.3149,3.90,-15.79,-2.07
21,1499362629,0.6699,-0.5396,0.3169,6.34,-15.55,-0.79
22,1499367629,0.6758,-0.5298,0.3101,8.60,-15.18,0.61
23,1499372628,0.6733,-0.5312,0.3188,10.18,-14.88,2.20
24,1499377629,0.6675,-0.5303,0.3120,11.28,-14.39,3.60
25,1499382628,0.6636,-0.5376,0.3042,11.83,-13.90,5.06
26,1499387629,0.6611,-0.5415,0.2920,12.01,-13.29,6.34
27,1499392629,0.6631,-0.5532,0.2944,12.13,-12.80,7.56
28,1499397630,0.6636,-0.5732,0.2935,12.13,-12.26,8.60
29,1499402627,0.6748,-0.5757,0.2920,12.20,-11.71,9.63
30,1499407628,0.6709,-0.5869,0.2964,12.13,-11.22,10.30
31,1499412631,0.6694,-0.5981,0.2891,11.71,-10.67,10.79
32,1499417628,0.6724,-0.6050,0.2891,11.22,-10.12,11.16
33,1499422629,0.6680,-0.6133,0.2783,10.37,-9.33,11.40
34,1499427629,0.6680,-0.6211,0.2822,9.70,-8.78,11.52
35,1499432629,0.6655,-0.6211,0.2871,9.21,-8.11,11.65
36,1499437628,0.6641,-0.6182,0.2900,9.21,-7.56,11.71
37,1499442629,0.6714,-0.6250,0.2910,9.94,-6.89,11.89
38,1499447627,0.6694,-0.6211,0.2861,10.98,-6.28,12.07
39,1499452629,0.6763,-0.6187,0.2861,12.62,-5.61,12.50
40,1499457628,0.6816,-0.6206,0.2930,14.33,-5.06,12.87
41,1499462629,0.6890,-0.6196,0.2861,15.79,-4.70,13.35
42,1499467629,0.6895,-0.6182,0.2847,16.71,-4.27,13.84
43,1499472629,0.6860,-0.6235,0.2852,16.77,-3.84,14.39
44,1499477628,0.6782,-0.6289,0.2773,15.85,-3.54,14.57
45,1499482629,0.6812,-0.6211,0.2700,14.39,-3.11,14.88
46,1499487629,0.6851,-0.6260,0.2607,12.62,-2.74,15.12
47,1499492627,0.6841,-0.6357,0.2422,10.85,-2.13,15.24
48,1499497629,0.6812,-0.6426,0.2422,9.02,-1.65,15.30
49,1499502629,0.6836,-0.6411,0.2407,6.46,-0.98,15.24
50,1499507628,0.6987,-0.6470,0.2461,3.48,-0.24,15.12
51,1499512631,0.7192,-0.6558,0.2490,1.22,0.49,15.06
52,1499517628,0.7446,-0.6553,0.2471,-0.06,1.10,15.12
53,1499522629,0.7656,-0.6655,0.2588,0.00,1.65,15.37
54,1499527627,0.7842,-0.6694,0.2778,1.10,2.20,15.73
55,1499532629,0.7886,-0.6729,0.2793,2.50,2.50,15.91
56,1499537628,0.7837,-0.6797,0.2876,3.41,2.62,16.10
57,1499542629,0.7866,-0.6865,0.2915,3.66,2.50,16.10
58,1499547627,0.7803,-0.6934,0.2852,3.54,2.38,16.10
59,1499552629,0.7793,-0.6904,0.2866,3.05,2.26,15.85
60,1499557628,0.7749,-0.6929,0.2876,2.80,1.95,15.49
61,1499562629,0.7808,-0.6914,0.2715,2.87,1.83,15.12
62,1499567627,0.7759,-0.6899,0.2676,3.66,1.52,15.00
63,1499572629,0.7690,-0.6870,0.2661,4.88,1.34,14.88
64,1499577628,0.7642,-0.6831,0.2690,6.16,1.04,14.57
65,1499582629,0.7646,-0.6782,0.2598,7.32,0.91,14.57
66,1499587628,0.7637,-0.6719,0.2490,9.39,0.79,14.70
67,1499592629,0.7734,-0.6719,0.2495,11.65,0.85,14.82
68,1499597628,0.7739,-0.6577,0.2534,13.23,0.98,15.06
69,1499602629,0.7695,-0.6553,0.2495,14.33,1.22,15.12
70,1499607629,0.7686,-0.6538,0.2456,14.76,1.34,15.24
71,1499612629,0.7627,-0.6611,0.2378,14.39,1.65,15.18
72,1499617628,0.7495,-0.6660,0.2090,13.54,1.77,15.00
73,1499622629,0.7422,-0.6797,0.2358,12.99,2.07,14.82
74,1499627629,0.7456,-0.6743,0.2832,11.04,2.87,14.51
75,1499632629,0.7466,-0.6758,0.2822,8.48,3.29,13.96
76,1499637628,0.7549,-0.6763,0.2920,5.43,3.60,13.29
77,1499642629,0.7646,-0.6826,0.3125,2.62,3.90,12.44
78,1499647629,0.7637,-0.6968,0.3101,0.55,4.45,11.95
79,1499652629,0.7686,-0.7109,0.2891,-0.24,4.88,11.16
80,1499657628,0.7749,-0.7251,0.2754,0.73,5.43,10.49
81,1499662629,0.7656,-0.7266,0.2632,2.80,6.28,9.76
82,1499667627,0.7778,-0.7339,0.2456,5.98,7.13,9.15
83,1499672629,0.7861,-0.7383,0.2275,9.57,8.23,8.54
84,1499677628,0.7891,-0.7427,0.2080,13.11,9.51,7.56
85,1499682629,0.7871,-0.7441,0.2080,15.06,10.79,6.77
86,1499687627,0.7837,-0.7510,0.2144,15.79,11.77,5.61
87,1499692630,0.7788,-0.7461,0.2197,15.30,12.87,4.27
88,1499697628,0.7808,-0.7524,0.2241,14.21,13.96,2.80
89,1499702629,0.7803,-0.7500,0.2300,12.74,14.57,1.34
90,1499707629,0.7769,-0.7485,0.2397,11.40,15.30,-0.24
91,1499712629,0.7686,-0.7388,0.2368,10.00,15.79,-2.01
92,1499717628,0.7617,-0.7300,0.2339,8.66,16.22,-3.60
93,1499722631,0.7617,-0.7197,0.2363,7.07,16.59,-5.55
94,1499727629,0.7544,-0.7109,0.2363,6.10,16.89,-6.59
95,1499732628,0.7363,-0.7046,0.2417,4.76,16.95,-7.87
96,1499737629,0.7368,-0.6934,0.2534,4.02,17.20,-9.09
97,1499742629,0.7358,-0.6831,0.2466,3.72,17.44,-10.12
98,1499747629,0.7310,-0.6870,0.2515,4.15,17.62,-10.98
99,1499752628,0.7354,-0.6860,0.2476,5.06,17.56,-11.65
100,1499757629,0.7466,-0.6758,0.2524,6.04,17.32,-12.32
101,1499762628,0.7480,-0.6714,0.2559,6.59,17.32,-12.87
102,1499767630,0.7612,-0.6587,0.2656,6.28,17.20,-13.29
103,1499772629,0.7773,-0.6494,0.2754,5.12,16.95,-13.60
104,1499777629,0.7822,-0.6426,0.2876,3.23,16.52,-13.84
105,1499782628,0.7759,-0.6367,0.2925,0.61,16.10,-13.84
106,1499787629,0.7764,-0.6226,0.3037,-1.83,15.61,-13.78
107,1499792628,0.7759,-0.6201,0.3008,-3.66,15.18,-13.54
108,1499797629,0.7778,-0.6118,0.3022,-4.76,14.94,-13.11
109,1499802629,0.7803,-0.6079,0.3032,-5.30,14.51,-12.44
110,1499807630,0.7759,-0.6025,0.3052,-5.61,14.15,-11.83
111,1499812628,0.7666,-0.6064,0.3110,-5.55,13.72,-11.10
112,1499817629,0.7603,-0.6055,0.3115,-5.67,13.29,-10.37
113,1499822628,0.7646,-0.6074,0.3145,-6.22,12.56,-9.51
114,1499827629,0.7686,-0.6050,0.3110,-7.32,11.95,-8.96
115,1499832629,0.7676,-0.6025,0.3105,-8.90,11.28,-7.99
116,1499837630,0.7744,-0.6011,0.3032,-10.91,10.79,-7.13
117,1499842628,0.7764,-0.6079,0.2974,-12.80,10.06,-6.10
118,1499847630,0.7637,-0.6055,0.2891,-14.57,9.15,-4.82
119,1499852628,0.7573,-0.6074,0.2700,-16.16,8.66,-3.72
120,1499857629,0.7661,-0.6260,0.2573,-17.20,8.23,-2.62
121,1499862629,0.7651,-0.6401,0.2134,-17.13,7.87,-1.83
122,1499867629,0.7749,-0.6714,0.1621,-15.49,7.68,-1.04
123,1499872628,0.7783,-0.6978,0.1665,-11.52,8.11,-0.49
124,1499877630,0.7896,-0.6978,0.1382,-7.01,8.90,-0.18
125,1499882628,0.7969,-0.7090,0.1060,-2.62,9.63,-0.24
126,1499887629,0.7930,-0.7280,0.1021,1.34,10.55,-0.67
127,1499892629,0.7949,-0.7422,0.1162,4.88,11.59,-1.22
128,1499897629,0.8062,-0.7637,0.1079,8.11,12.87,-1.89
129,1499902629,0.8149,-0.7676,0.1206,11.46,14.02,-2.38
130,1499907630,0.8154,-0.7593,0.1670,15.79,15.37,-2.93
131,1499912628,0.8267,-0.7495,0.2021,21.16,16.40,-3.35
132,1499917629,0.8433,-0.7373,0.2231,26.28,17.44,-3.29
133,1499922629,0.8525,-0.7280,0.2349,29.82,18.35,-3.17
134,1499927629,0.8408,-0.7319,0.2607,31.65,19.15,-3.23
135,1499932628,0.8335,-0.7363,0.2793,31.22,19.94,-3.41
136,1499937629,0.7930,-0.7412,0.2812,28.96,20.43,-3.84
137,1499942628,0.8296,-0.7432,0.2939,24.88,20.85,-4.70
138,1499947629,0.8345,-0.7612,0.3267,19.94,20.91,-5.73
139,1499952629,0.8540,-0.7764,0.3916,15.67,20.98,-7.01
140,1499957629,0.8740,-0.8037,0.4380,12.74,20.85,-8.48
141,1499962628,0.8936,-0.8218,0.4614,11.71,20.55,-9.88
142,1499967630,0.9077,-0.8379,0.4985,12.13,20.00,-11.22
143,1499972628,0.9204,-0.8477,0.5459,14.39,19.39,-12.44
144,1499977629,0.8975,-0.8760,0.5415,16.83,18.96,-13.66
145,1499982629,0.9395,-0.8896,0.4507,18.41,17.80,-14.82
146,1499987629,0.9663,-0.9136,0.4805,20.43,16.71,-15.85
147,1499992628,0.9604,-0.9087,0.5371,21.46,16.10,-16.89
148,1499997629,0.9502,-0.9355,0.3569,20.37,15.49,-18.23
149,1500002628,0.9722,-0.9487,0.2578,18.41,13.96,-19.45
150,1500007629,0.9644,-0.9551,0.4087,17.13,12.87,-21.16
151,1500012629,0.9282,-0.9639,0.4561,16.89,12.26,-22.99
152,1500017630,0.8950,-0.9766,0.3159,17.50,10.67,-25.18
153,1500022628,0.8940,-0.9971,0.3076,18.29,8.29,-27.74
154,1500027629,0.8672,-1.0186,0.4380,18.60,6.65,-30.98
155,1500032628,0.8374,-1.0488,0.4546,18.17,5.12,-34.82
156,1500037630,0.8262,-1.0703,0.3721,16.77,2.74,-39.39
157,1500042629,0.8091,-1.0845,0.4150,14.45,0.55,-44.45
158,1500047629,0.7876,-1.0889,0.5137,11.59,-1.04,-50.00
159,1500052628,0.7817,-1.0923,0.4868,8.90,-2.50,-55.91
160,1500057629,0.7798,-1.1006,0.4526,6.52,-4.33,-61.89
161,1500062631,0.7837,-1.1108,0.5063,4.88,-5.85,-68.05
162,1500067629,0.7891,-1.1143,0.5698,3.84,-6.77,-74.21
163,1500072629,0.7900,-1.1133,0.5566,3.90,-7.74,-80.55
164,1500077629,0.7881,-1.1230,0.5303,5.73,-8.90,-86.89
165,1500082628,0.7812,-1.1265,0.5806,8.90,-10.00,-93.48
166,1500087629,0.7700,-1.1167,0.6030,13.05,-10.67,-99.88
167,1500092628,0.7549,-1.0986,0.5859,17.74,-11.46,-106.46
168,1500097629,0.7549,-1.0732,0.5796,22.68,-12.50,-112.80
169,1500102629,0.7505,-1.0430,0.6084,27.68,-13.29,-119.27
170,1500107629,0.7437,-1.0073,0.6040,32.38,-13.84,-125.37
171,1500112628,0.7334,-0.9619,0.5747,36.22,-14.51,-131.16
172,1500117630,0.7100,-0.9067,0.5732,38.84,-15.06,-136.77
173,1500122777,0.7095,-0.8433,0.5908,39.63,-15.49,-142.01
174,1500127630,0.7266,-0.7871,0.5693,38.78,-15.61,-146.83
175,1500132632,0.7188,-0.7026,0.5479,35.98,-15.61,-152.13
176,1500137630,0.6919,-0.6562,0.5366,33.41,-15.43,-155.12
177,1500142628,0.6758,-0.5864,0.5420,30.18,-14.70,-158.78
178,1500147629,0.6782,-0.5244,0.5151,27.68,-13.78,-161.83
179,1500152629,0.6831,-0.4663,0.4932,26.16,-12.87,-163.96
180,1500157629,0.6875,-0.4092,0.4912,25.67,-11.65,-165.43
181,1500162628,0.6987,-0.3589,0.4932,26.34,-10.00,-166.16
182,1500167629,0.6953,-0.3057,0.4844,28.11,-8.66,-166.10
183,1500172628,0.6890,-0.2500,0.4761,30.43,-7.26,-165.43
184,1500177629,0.7002,-0.2036,0.4795,32.80,-5.73,-164.02
185,1500182629,0.7222,-0.1548,0.4912,34.76,-4.21,-161.83
186,1500187629,0.7412,-0.1025,0.4810,35.67,-2.80,-158.90
187,1500192628,0.7158,-0.0234,0.4785,35.55,-1.59,-155.61
188,1500197631,0.6763,0.0332,0.4917,34.02,-0.37,-152.07
189,1500202629,0.6602,0.0854,0.5029,31.59,0.79,-147.99
190,1500207629,0.6548,0.1382,0.4897,29.45,1.71,-143.41
191,1500212629,0.6470,0.1655,0.4829,28.17,2.62,-137.99
192,1500217630,0.6313,0.2065,0.4766,28.48,3.29,-132.20
193,1500222627,0.5933,0.2471,0.4727,30.12,3.72,-125.91
194,1500227629,0.5630,0.2891,0.4707,32.99,4.02,-119.39
195,1500232628,0.5430,0.3271,0.4663,36.95,4.21,-112.68
196,1500237629,0.5332,0.3428,0.4585,42.38,4.51,-105.43
197,1500242629,0.5493,0.3618,0.4468,48.41,4.27,-97.68
198,1500247629,0.5420,0.3999,0.4326,54.39,3.84,-89.70
199,1500252628,0.5142,0.4336,0.4302,59.21,3.11,-81.77
200,1500257629,0.5127,0.4521,0.4346,62.56,2.44,-73.54
201,1500262627,0.5464,0.4326,0.4341,64.15,1.40,-65.18
202,1500267629,0.5630,0.4365,0.4141,64.88,0.30,-56.52
203,1500272629,0.5425,0.4531,0.4058,65.00,-0.98,-48.05
204,1500277629,0.5449,0.4438,0.4004,64.15,-2.50,-40.00
205,1500282628,0.5786,0.4297,0.3901,62.62,-3.96,-32.13
206,1500287630,0.6177,0.3960,0.3838,60.61,-5.55,-24.09
207,1500293153,0.6270,0.3911,0.3750,57.50,-7.62,-14.76
208,1500297629,0.6294,0.3687,0.3867,54.94,-8.96,-9.15
209,1500302629,0.6704,0.3218,0.3882,51.16,-10.49,-2.32
210,1500307630,0.7412,0.2471,0.3823,46.83,-11.77,4.21
211,1500312628,0.7988,0.1919,0.3809,41.77,-13.48,10.30
212,1500317630,0.8257,0.1357,0.3940,35.79,-15.06,15.30
213,1500322628,0.8613,0.0723,0.4048,29.33,-16.71,19.21
214,1500327629,0.9336,-0.0332,0.3921,23.96,-18.54,22.20
215,1500332629,1.0020,-0.1099,0.3506,20.49,-20.73,24.45
216,1500337630,1.0352,-0.1763,0.3252,18.60,-23.48,25.79
217,1500342628,1.0723,-0.2441,0.3262,16.95,-26.34,26.10
218,1500347630,1.1333,-0.3115,0.3228,15.12,-29.15,25.55
219,1500352628,1.1655,-0.3657,0.2998,13.35,-31.71,24.21
220,1500357629,1.1729,-0.4028,0.2886,11.83,-33.90,22.07
221,1500362629,1.1885,-0.4404,0.2930,10.24,-36.04,19.02
222,1500367629,1.2197,-0.4917,0.3003,8.60,-37.38,15.18
223,1500372646,1.2480,-0.5332,0.3013,6.65,-38.41,11.10
224,1500377630,1.2407,-0.5562,0.3052,4.51,-39.09,6.16
225,1500382628,1.2202,-0.6113,0.3267,1.71,-39.57,0.30
226,1500387629,1.1987,-0.6274,0.3369,-2.44,-39.63,-6.40
227,1500392629,1.1631,-0.6445,0.3633,-7.99,-39.76,-14.27
228,1500397629,1.1362,-0.6641,0.3774,-14.63,-39.57,-22.87
229,1500402628,1.1147,-0.6729,0.3921,-21.40,-39.15,-31.77
230,1500407629,1.0679,-0.6660,0.4009,-27.20,-38.60,-41.10
231,1500412628,1.0151,-0.6416,0.4038,-31.04,-37.80,-50.49
232,1500417629,1.0029,-0.6187,0.3950,-32.07,-36.89,-59.45
233,1500422629,0.9956,-0.5811,0.3809,-30.37,-35.73,-67.80
234,1500427630,0.9624,-0.5195,0.3721,-26.40,-34.39,-75.30
235,1500432629,0.9302,-0.4507,0.3677,-21.46,-32.87,-82.26
236,1500437627,0.9009,-0.3730,0.3481,-15.91,-31.04,-88.17
237,1500442629,0.8906,-0.2964,0.3325,-9.76,-29.02,-93.05
238,1500447628,0.8706,-0.1978,0.3110,-3.66,-27.01,-96.77
239,1500452629,0.8379,-0.0972,0.2900,1.46,-24.94,-99.27
240,1500457627,0.8096,0.0127,0.2754,5.00,-22.93,-100.67
241,1500462629,0.7798,0.1226,0.2549,6.59,-20.67,-100.73
242,1500467629,0.7534,0.2324,0.2329,6.59,-18.35,-99.39
243,1500472629,0.7178,0.3330,0.2148,4.51,-16.16,-96.89
244,1500477627,0.6831,0.4541,0.2061,0.73,-13.72,-92.93
245,1500482629,0.6567,0.5518,0.1997,-4.51,-10.98,-87.74
246,1500487628,0.6265,0.6479,0.2021,-10.24,-8.11,-81.10
247,1500492960,0.5864,0.7515,0.2041,-16.65,-4.51,-71.28
248,1500497630,0.5562,0.8081,0.2188,-19.82,-1.89,-63.66
249,1500502628,0.5078,0.8896,0.2246,-22.32,1.22,-52.62
250,1500507629,0.4878,0.9736,0.2324,-22.80,4.33,-40.73
251,1500512629,0.4434,1.0220,0.2485,-21.04,7.07,-27.62
252,1500517629,0.4204,1.0728,0.2905,-17.44,9.82,-13.35
253,1500522628,0.4038,1.1284,0.3301,-11.22,12.38,1.95
254,1500527630,0.3501,1.1768,0.3481,-0.61,14.88,18.05
255,1500532628,0.2881,1.2104,0.3481,15.06,17.26,34.70
256,1500537629,0.2637,1.2388,0.3618,35.24,19.33,52.07
257,1500542867,0.2578,1.2256,0.3745,63.35,21.59,73.84
258,1500547630,0.2646,1.2139,0.3750,82.87,23.23,88.90
259,1500552627,0.2607,1.2070,0.3604,106.59,25.30,108.17
260,1500557629,0.2700,1.1646,0.3403,126.71,27.50,127.38
261,1500562631,0.3335,1.0962,0.3447,142.93,29.63,146.65
262,1500567628,0.3286,1.0557,0.3140,152.99,32.01,165.37
263,1500572629,0.2939,1.0098,0.2788,156.10,34.21,183.05
264,1500577627,0.3062,0.9658,0.2524,151.65,35.98,199.21
265,1500582629,0.3037,0.9009,0.2461,138.66,37.32,214.02
266,1500587628,0.3110,0.8252,0.2271,118.17,37.93,227.50
267,1500592629,0.3345,0.7437,0.2178,91.77,37.99,239.76
268,1500597627,0.3809,0.6338,0.2129,61.95,37.26,251.16
269,1500602629,0.4229,0.5308,0.2183,30.67,35.55,261.77
270,1500607628,0.4634,0.4253,0.2363,0.55,32.99,271.59
271,1500612630,0.4805,0.3223,0.2432,-25.98,29.76,280.79
272,1500617627,0.4800,0.2339,0.2617,-47.74,25.79,289.27
273,1500622629,0.5078,0.0957,0.2847,-63.84,21.46,297.26
274,1500627629,0.6265,-0.0874,0.3076,-73.96,16.83,305.12
275,1500632995,0.7803,-0.2812,0.3203,-78.66,10.91,314.27
276,1500637629,0.7954,-0.3813,0.3364,-78.41,6.52,319.09
277,1500642628,0.7480,-0.5195,0.3677,-76.34,1.34,322.80
278,1500647629,0.6963,-0.6748,0.4263,-73.41,-3.84,323.72
279,1500652629,0.6812,-0.8535,0.4839,-70.73,-8.41,321.71
280,1500657629,3.3413,-11.2568,0.5132,-72.26,-9.45,286.34
281,1500662628,1.7412,-10.1431,0.1431,-22.13,3.23,154.33
282,1500667629,1.7241,-5.3438,0.0200,-44.70,6.16,64.57
283,1500672628,1.1396,-1.3281,0.7139,-88.48,-9.02,9.21
284,1500677629,1.1504,0.1221,0.3926,-101.95,-15.24,-23.23
285,1500682629,1.1099,-0.3374,-0.0625,-94.39,-5.79,-38.05
286,1500687629,1.1196,-1.5874,0.6084,-81.34,-9.51,-45.18
287,1500692628,1.0239,-2.5996,1.0903,-67.80,-20.00,-50.55
288,1500697630,0.9673,-2.6079,0.5591,-53.11,-17.56,-57.20
289,1500702628,1.0015,-1.8232,0.3901,-34.09,-11.65,-66.46
290,1500707629,0.9907,-0.9150,0.8442,-9.82,-16.40,-77.62
291,1500712629,0.9282,-0.4517,0.7852,16.16,-21.04,-89.33
292,1500717629,0.8784,-0.6362,0.3828,39.27,-16.89,-100.43
293,1500722628,0.8765,-1.1797,0.5171,57.87,-15.12,-110.30
294,1500727630,0.8843,-1.6665,0.8262,71.46,-20.55,-119.15
295,1500732628,0.9097,-1.7837,0.6230,79.15,-22.38,-127.74
296,1500737629,0.9785,-1.4961,0.3882,81.40,-19.76,-136.83
297,1500742629,0.9946,-1.0000,0.5776,79.63,-21.34,-146.46
298,1500747629,0.9229,-0.6030,0.6719,73.66,-24.51,-156.52
299,1500752628,0.8638,-0.4937,0.4595,62.87,-22.87,-166.04
300,1500757630,0.8584,-0.6064,0.3770,48.96,-24.27,-174.51
301,1500762853,0.8311,-0.4468,0.4219,30.24,-25.49,-183.48
302,1500767629,0.8247,-0.8711,0.5127,16.95,-24.27,-187.99
303,1500772628,0.8345,-0.7441,0.3198,0.91,-23.84,-193.11
304,1500777627,0.8101,-0.4697,0.3198,-13.96,-23.54,-197.56
305,1500782628,0.7607,-0.1758,0.4321,-26.83,-21.16,-200.91
306,1500787630,0.7461,0.0459,0.3643,-37.01,-18.29,-203.23
307,1500792830,0.7617,0.1436,0.2661,-44.76,-15.06,-203.35
308,1500797629,0.7695,0.0967,0.2393,-47.32,-13.11,-202.44
309,1500802774,0.7632,0.2603,0.2500,-47.99,-9.09,-198.72
310,1500807629,0.7510,0.1729,0.2095,-46.95,-6.28,-194.33
311,1500812628,0.7363,0.3354,0.1436,-43.66,-3.17,-188.17
312,1500817630,0.7202,0.5371,0.1929,-39.21,0.06,-180.55
313,1500822628,0.7070,0.6885,0.2178,-33.66,3.78,-171.59
314,1500827630,0.7041,0.7627,0.1543,-28.29,6.89,-160.98
315,1500832629,0.6899,0.7983,0.1260,-23.84,9.39,-149.02
316,1500837629,0.6543,0.8169,0.2056,-20.61,12.01,-136.10
317,1500842628,0.6201,0.8618,0.2363,-19.39,15.00,-122.32
318,1500847629,0.5859,0.9424,0.2168,-18.96,17.87,-107.80
319,1500852627,0.5547,1.0503,0.2363,-18.35,20.43,-92.74
320,1500857627,0.5137,1.1543,0.2856,-16.52,23.17,-76.83
321,1500862627,0.4810,1.2300,0.2690,-12.74,25.85,-60.12
322,1500867628,0.4409,1.2666,0.2393,-7.32,27.87,-42.68
323,1500872631,0.4136,1.2852,0.2593,-0.98,29.63,-24.45
324,1500877628,0.3770,1.2959,0.2754,5.73,31.59,-5.61
325,1500882627,0.3369,1.3076,0.2471,12.01,32.80,13.54
326,1500887629,0.3042,1.3218,0.2192,17.68,33.90,32.80
327,1500892630,0.2690,1.3350,0.2373,22.32,35.12,52.07
328,1500897629,0.2329,1.3398,0.2319,25.98,36.22,71.34
329,1500902629,0.1924,1.3330,0.1963,28.48,36.77,90.18
330,1500907630,0.1611,1.3057,0.1851,29.51,36.89,109.21
331,1500912628,0.1519,1.2661,0.2051,28.90,36.71,127.68
332,1500917629,0.1538,1.2178,0.2085,27.07,36.16,146.04
333,1500922628,0.1680,1.1685,0.1885,24.82,35.55,164.15
334,1500927629,0.1875,1.1162,0.1855,22.87,34.27,182.38
335,1500932629,0.2197,1.0557,0.1987,20.85,33.23,200.43
336,1500937630,0.2603,0.9883,0.2012,18.35,32.07,218.35
337,1500942628,0.3120,0.8989,0.2109,14.88,30.61,236.46
338,1500947629,0.3716,0.7964,0.2393,10.06,29.27,254.33
339,1500952628,0.4233,0.6973,0.2559,4.39,28.05,271.95
340,1500957629,0.4658,0.5781,0.2524,-1.59,26.59,289.09
341,1500962629,0.5127,0.4282,0.2632,-7.50,24.82,305.49
342,1500967628,0.5801,0.2593,0.2803,-13.11,22.99,321.22
343,1500972629,0.6323,0.1089,0.2900,-18.60,20.85,335.91
344,1500977627,0.6660,-0.0361,0.3003,-24.27,18.41,348.35
345,1500982627,0.6851,-0.1924,0.3223,-30.24,15.61,358.29
346,1500987629,0.6714,-0.3267,0.3682,-36.04,13.05,365.18
347,1500992629,2.0952,-7.9600,0.9590,-38.48,8.05,356.59
348,1500997630,1.9014,-10.6025,-0.7637,26.10,18.66,197.13
349,1501002627,1.6846,-2.2910,-1.7749,-25.06,4.33,78.72
350,1501007697,1.0669,-1.6387,-0.0371,-70.61,12.38,18.48
351,1501012629,0.9258,1.2856,1.0723,-62.56,32.07,-18.66
352,1501017631,1.1514,-1.0059,-0.2378,-51.89,23.72,-30.30
353,1501022628,1.0957,-3.0903,-0.0137,-49.94,16.71,-29.39
354,1501027629,0.9854,-3.5562,1.0854,-49.21,19.27,-27.26
355,1501032629,0.8994,-2.1772,0.6851,-49.39,22.26,-27.99
356,1501037629,0.8945,-0.1787,-0.1323,-50.43,19.63,-32.62
357,1501042628,0.8804,1.0747,0.3379,-51.52,19.51,-38.72
358,1501047629,0.8364,0.9897,0.8682,-52.07,24.27,-43.66
359,1501052627,0.8433,-0.1157,0.2754,-52.13,26.04,-45.85
360,1501057629,0.8179,0.1377,-0.0088,-50.49,25.61,-47.87
361,1501062628,0.8447,-1.9219,0.4326,-50.91,23.72,-45.12
362,1501067629,0.8311,-1.6475,0.6260,-48.17,26.28,-48.11
363,1501072627,0.8530,-0.7520,0.1787,-47.74,28.11,-47.74
364,1501077629,0.8677,-0.9287,0.0259,-46.89,27.80,-49.88
365,1501082628,0.8140,0.3301,0.4902,-45.49,28.48,-54.39
366,1501087718,0.8320,0.2388,0.5718,-47.26,30.30,-55.37
367,1501092629,0.8413,0.0967,0.2998,-49.63,31.46,-57.20
368,1501097630,0.8560,-0.3867,0.0474,-53.72,30.30,-57.44
369,1501102629,0.8359,-0.8291,0.3408,-59.33,30.30,-56.46
370,1501107629,0.8267,-0.9390,0.5229,-65.55,32.26,-55.12
371,1501112629,0.8667,-0.7168,0.2803,-70.67,32.56,-54.09
372,1501117628,0.8779,-0.3228,0.1895,-74.57,31.65,-53.35
373,1501122630,0.8491,0.0005,0.4341,-77.62,31.95,-52.80
374,1501127628,0.8389,0.0801,0.4702,-79.88,32.62,-51.71
375,1501132629,0.8525,-0.0708,0.2642,-81.65,31.71,-50.06
376,1501137629,0.8657,-0.3047,0.2896,-82.99,30.18,-47.62
377,1501142630,0.8569,-0.4502,0.5024,-83.66,30.12,-44.70
378,1501147628,0.8340,-0.4170,0.4795,-83.29,29.88,-41.77
379,1501152629,0.8232,-0.2539,0.3325,-81.95,28.60,-39.09
380,1501157627,0.8291,-0.0581,0.4038,-79.21,27.26,-36.52
381,1501162628,0.8271,0.0415,0.5239,-75.67,26.89,-33.84
382,1501167631,0.8374,-0.0010,0.4448,-71.59,25.98,-30.79
383,1501172628,0.8550,-0.1304,0.3491,-67.74,23.96,-27.20
384,1501177629,0.8765,-0.2388,0.4492,-65.00,22.20,-23.35
385,1501182629,0.9058,-0.2769,0.5244,-63.84,21.10,-19.51
386,1501187630,0.9150,-0.2441,0.4575,-64.94,19.33,-15.79
387,1501192627,0.9146,-0.1738,0.4287,-68.11,16.89,-12.50
388,1501197632,0.8945,-0.1177,0.5249,-73.60,14.94,-9.45
389,1501202628,0.8916,-0.1006,0.5708,-80.79,13.23,-6.71
390,1501207629,0.9038,-0.1392,0.5220,-88.60,10.98,-4.21
391,1501212628,0.9253,-0.1948,0.5220,-95.55,8.29,-1.65
392,1501217629,0.9326,-0.2349,0.5811,-100.55,5.98,0.91
393,1501222627,0.9375,-0.2397,0.5581,-103.11,3.48,3.48
394,1501227630,0.9497,-0.2217,0.4956,-103.05,0.37,5.98
395,1501232628,0.9668,-0.1870,0.5068,-101.22,-3.05,8.54
396,1501237629,0.9712,-0.1699,0.5464,-98.23,-5.98,10.85
397,1501242629,0.9653,-0.1855,0.5234,-94.88,-8.78,12.93
398,1501247627,0.9565,-0.2217,0.4790,-91.65,-11.95,15.06
399,1501252627,0.9580,-0.2637,0.4854,-89.45,-15.06,17.01
400,1501257627,0.9800,-0.3145,0.4995,-88.72,-17.56,19.02
401,1501263212,1.0381,-0.3638,0.4727,-89.63,-20.18,20.91
402,1501267630,1.0591,-0.3706,0.4429,-92.07,-22.87,22.56
403,1501272629,1.0127,-0.3574,0.4492,-95.61,-25.00,23.48
404,1501277629,0.9580,-0.3750,0.4517,-100.00,-26.77,23.78
405,1501282629,0.9180,-0.3994,0.4077,-104.70,-28.60,23.41
406,1501287628,0.9199,-0.4268,0.3774,-109.09,-30.24,22.62
407,1501292629,0.9321,-0.4595,0.3940,-113.05,-31.59,21.46
408,1501297628,0.9541,-0.4790,0.3950,-116.52,-32.80,20.18
409,1501302630,0.9639,-0.4668,0.3643,-118.66,-33.72,18.66
410,1501307629,0.9648,-0.4531,0.3569,-119.21,-34.45,16.95
411,1501312629,0.9644,-0.4619,0.3521,-117.93,-34.76,15.18
412,1501317629,0.9653,-0.4756,0.3149,-115.30,-35.24,13.72
413,1501322629,0.9751,-0.4932,0.2759,-111.52,-35.67,12.20
414,1501327630,0.9990,-0.4990,0.2700,-107.56,-36.10,11.04
415,1501332760,1.0332,-0.4995,0.2563,-103.96,-36.46,9.70
416,1501337630,1.0435,-0.5059,0.2344,-101.28,-36.65,8.66
417,1501342628,1.0552,-0.5103,0.2007,-100.00,-36.59,7.56
418,1501347629,1.0806,-0.5142,0.1846,-100.43,-36.65,6.65
419,1501352627,1.1089,-0.5269,0.1553,-102.74,-36.52,5.73
420,1501357629,1.1187,-0.5420,0.1367,-107.26,-36.22,4.88
421,1501362629,1.1191,-0.5405,0.1328,-113.60,-35.85,3.78
422,1501367629,1.1250,-0.5503,0.1489,-121.59,-35.18,2.87
423,1501372629,1.1191,-0.5527,0.1416,-130.30,-34.33,1.89
424,1501377629,1.1143,-0.5503,0.1152,-139.02,-33.48,0.91
425,1501382627,1.1060,-0.5498,0.0845,-146.59,-32.87,-0.12
426,1501387627,1.0884,-0.5488,0.0801,-153.35,-32.38,-0.98
427,1501392629,1.0703,-0.5439,0.0688,-158.84,-31.95,-2.01
428,1501397629,1.0635,-0.5293,0.0518,-163.35,-31.46,-3.05
429,1501402628,1.0439,-0.5332,0.0479,-167.07,-31.04,-4.21
430,1501407629,1.0303,-0.5312,0.0273,-169.57,-30.61,-5.12
431,1501412627,0.9873,-0.6309,-0.0703,-171.28,-30.61,-6.16
432,1501417629,0.9272,-0.6055,-0.0220,-174.63,-29.70,-7.32
433,1501422628,0.9390,-0.5005,-0.1021,-177.56,-27.93,-9.39
434,1501427629,0.9531,-0.6812,-0.4507,-181.16,-27.20,-11.83
435,1501432628,0.7954,-0.7256,-0.1699,-189.94,-24.02,-14.82
436,1501437629,0.9175,-0.5669,-0.3496,-194.88,-19.76,-19.45
437,1501442629,1.0366,-0.8232,-0.7109,-196.22,-18.60,-23.66
438,1501447629,1.1001,-1.0015,-0.3438,-196.52,-15.06,-27.56
439,1501452669,1.0771,-0.9038,-0.1548,-194.70,-10.49,-31.65
440,1501457629,1.1450,-0.6992,-0.4463,-194.09,-7.20,-35.85
441,1501462629,1.2310,-0.5200,-0.4844,-195.43,-5.24,-40.00
442,1501467629,1.1436,-0.5083,-0.1914,-199.39,-2.01,-42.87
443,1501472627,1.0537,-0.5405,-0.1675,-205.55,1.16,-44.09
444,1501477629,0.9727,-0.5684,-0.3896,-213.54,2.26,-43.84
445,1501482628,0.9536,-0.5996,-0.3843,-222.80,1.52,-43.29
446,1501487629,0.9629,-0.6138,-0.0757,-232.68,1.65,-42.38
447,1501492627,1.0420,-0.5674,0.0088,-243.23,2.07,-41.71
448,1501497630,1.1265,-0.5273,-0.0312,-254.45,1.77,-41.22
449,1501502629,1.0938,-0.4746,0.0112,-265.79,0.91,-40.91
450,1501507629,1.0103,-0.4531,0.0957,-277.50,0.61,-40.79
451,1501512627,0.9331,-0.4561,0.0337,-289.45,0.06,-40.67
452,1501517766,0.8940,-0.4619,-0.1440,-302.13,-1.83,-40.67
453,1501522629,0.8735,-0.4321,-0.2036,-315.98,-3.66,-40.91
454,1501527629,0.9087,-0.3857,-0.2075,-330.12,-4.70,-41.77
455,1501532629,0.8877,-0.3901,-0.4351,-343.17,-5.98,-42.68
456,1501537628,0.9360,-0.4771,-0.8452,-351.52,-7.01,-42.87
457,1501542629,1.0820,-0.5176,-1.2124,-348.72,-6.40,-41.46
458,1501547628,1.2163,-0.4331,-1.0332,-330.85,-3.23,-38.90
459,1501552630,1.2104,-0.4468,-0.6489,-314.27,0.79,-35.98
460,1501557629,1.1133,-0.5640,-0.4907,-307.20,3.41,-32.26
461,1501562629,0.9946,-0.5239,-0.3560,-303.66,5.30,-28.90
462,1501567995,0.9067,-0.4927,-0.2734,-300.49,7.01,-26.22
463,1501572630,0.8599,-0.3403,-0.2905,-299.09,7.68,-22.87
464,1501577627,0.8936,-0.1597,-0.3140,-300.73,8.23,-20.06
465,1501582630,1.0464,-0.1309,-0.3345,-303.11,8.23,-17.07
466,1501587629,1.0889,-0.1147,-0.3320,-304.15,7.44,-12.93
467,1501592629,0.9771,-0.1597,-0.3481,-305.30,5.67,-8.54
468,1501597628,0.7964,-0.1318,-0.3838,-307.32,2.62,-4.45
469,1501602629,0.6060,0.0566,-0.3564,-309.09,-0.61,-2.62
470,1501607628,0.4761,0.1484,-0.4019,-309.76,-5.18,-4.45
471,1501612629,0.4209,0.0674,-0.4028,-308.96,-10.98,-9.15
472,1501617629,0.5879,-0.1611,-0.3794,-307.80,-17.20,-14.94
473,1501622629,0.7690,-0.4033,-0.2568,-304.94,-22.26,-20.55
474,1501627628,0.9673,-0.5801,-0.3599,-297.13,-25.79,-25.43
475,1501632629,1.0879,-0.5269,-0.4644,-280.67,-27.56,-29.70
476,1501637628,1.0967,-0.3213,-0.4014,-258.17,-27.62,-34.27
477,1501642629,1.0479,-0.2588,-0.2480,-236.59,-26.59,-38.35
478,1501647629,0.9438,-0.2871,-0.2227,-219.02,-24.82,-41.65
479,1501652630,0.8354,-0.2866,-0.2749,-205.79,-23.17,-43.72
480,1501657628,0.8105,-0.2290,-0.3052,-195.06,-22.13,-45.12
481,1501662629,0.8535,-0.1768,-0.3276,-185.73,-21.28,-46.16
482,1501667628,0.8081,-0.0010,-0.9077,-181.34,-18.78,-46.28
483,1501672630,0.9854,0.1221,-1.0439,-184.88,-19.63,-46.89
484,1501677629,1.0166,0.0308,-0.1655,-187.62,-17.26,-46.71
485,1501682629,0.9048,-0.3135,0.0020,-193.23,-12.07,-44.76
486,1501687628,0.9243,-0.0356,-0.6440,-200.30,-13.78,-40.67
487,1501692629,0.7778,-0.0659,-0.8125,-206.46,-17.26,-38.23
488,1501697628,0.6987,-0.0420,-0.3545,-211.52,-17.32,-34.70
489,1501702629,0.7598,0.1030,-0.4312,-214.82,-17.80,-31.89
490,1501707629,0.8760,0.0923,-0.9048,-217.56,-22.80,-30.61
491,1501712629,0.9702,0.0044,-0.8848,-222.32,-30.18,-30.06
492,1501717629,0.9810,-0.0044,-0.2778,-227.93,-34.63,-29.63
493,1501722627,0.9448,0.0620,-0.3374,-233.48,-37.62,-30.24
494,1501727629,0.9033,0.0732,-0.4819,-237.01,-41.52,-31.77
495,1501732628,0.8662,0.0415,-0.3369,-237.80,-43.96,-33.29
496,1501737630,0.7881,0.0371,-0.1172,-235.37,-44.27,-33.96
497,1501742627,0.8018,0.0684,-0.3320,-229.02,-43.96,-34.57
498,1501747627,0.7876,0.0747,-0.4019,-218.60,-43.54,-35.06
499,1501753174,0.7651,0.1060,-0.2847,-204.57,-41.95,-35.24
500,1501757630,0.7427,0.0654,-0.2822,-188.41,-40.30,-35.85
501,1501762629,0.7510,0.0078,-0.3979,-171.46,-39.70,-36.89
502,1501767629,0.7539,0.0229,-0.4263,-155.06,-40.30,-38.48
503,1501772628,0.7456,0.0615,-0.3477,-141.28,-40.98,-40.98
504,1501777629,0.7373,0.0781,-0.3662,-131.22,-41.71,-43.66
505,1501782627,0.7310,0.0845,-0.4985,-125.85,-43.41,-46.22
506,1501787629,0.7241,0.1216,-0.4961,-124.51,-45.24,-48.41
507,1501792629,0.7300,0.1318,-0.4268,-127.13,-46.22,-50.61
508,1501797629,0.7500,0.1089,-0.4478,-132.68,-46.95,-52.38
509,1501802627,0.7344,0.1206,-0.5083,-139.94,-47.74,-53.84
510,1501807629,0.7002,0.1479,-0.4961,-147.07,-48.72,-55.61
511,1501812628,0.6836,0.1587,-0.4609,-152.93,-49.33,-57.56
512,1501817629,0.6807,0.1548,-0.4829,-157.01,-50.18,-59.82
513,1501822627,0.6621,0.1382,-0.5137,-159.57,-51.16,-62.44
514,1501827629,0.6372,0.1240,-0.4932,-160.73,-52.26,-65.49
515,1501832628,0.6235,0.1377,-0.4502,-160.79,-53.35,-68.54
516,1501837629,0.6226,0.1484,-0.4497,-159.57,-54.39,-71.77
517,1501842629,0.6211,0.1597,-0.4658,-156.95,-55.18,-74.76
518,1501847709,0.6240,0.1870,-0.4590,-153.48,-56.04,-77.50
519,1501852629,0.6523,0.2285,-0.4766,-150.85,-56.71,-79.39
520,1501857630,0.6382,0.2437,-0.4897,-150.37,-57.62,-80.98
521,1501862629,0.6274,0.2515,-0.4604,-151.40,-58.72,-82.07
522,1501867628,0.6445,0.2544,-0.4678,-153.11,-59.70,-82.93
523,1501872629,0.6631,0.2446,-0.4995,-155.18,-61.22,-84.02
524,1501877628,0.6660,0.2305,-0.5098,-157.80,-62.80,-84.82
525,1501882629,0.6572,0.2173,-0.4897,-161.16,-64.63,-85.55
526,1501887629,0.6328,0.2275,-0.4849,-164.76,-66.28,-85.91
527,1501892629,0.6250,0.2534,-0.5054,-167.99,-67.87,-86.16
528,1501897628,0.6348,0.2896,-0.4883,-171.04,-69.45,-86.10
529,1501902629,0.6475,0.3096,-0.4541,-174.76,-71.16,-85.73
530,1501907820,0.6484,0.3105,-0.4048,-179.63,-72.93,-85.06
531,1501912630,0.6626,0.3135,-0.3867,-185.43,-75.12,-84.21
532,1501917629,0.6665,0.3271,-0.3687,-191.16,-77.32,-83.05
533,1501922629,0.6602,0.3496,-0.3662,-196.40,-79.82,-81.89
534,1501927628,0.6636,0.3716,-0.3506,-201.52,-82.26,-80.79
535,1501932629,0.6494,0.3843,-0.3457,-207.07,-84.94,-79.63
536,1501937628,0.6377,0.3965,-0.3389,-212.32,-87.50,-78.54
537,1501942629,0.6333,0.4033,-0.3325,-217.20,-89.88,-77.80
538,1501947629,0.6089,0.4033,-0.3330,-221.59,-91.89,-77.01
539,1501952629,0.5679,0.4043,-0.3232,-225.43,-93.48,-76.40
540,1501957628,0.5254,0.4126,-0.3149,-228.35,-94.63,-75.85
541,1501962630,0.5190,0.4219,-0.3018,-229.94,-96.04,-75.43
542,1501967628,0.4639,0.4199,-0.3071,-230.00,-97.56,-75.24
543,1501972629,0.4697,0.4229,-0.2964,-227.99,-99.21,-75.06
544,1501977671,0.4185,0.4458,-0.2700,-224.21,-101.16,-74.70
545,1501982630,0.4604,0.4722,-0.2441,-218.72,-102.99,-74.45
546,1501987628,0.4395,0.5112,-0.2524,-211.95,-105.00,-74.21
547,1501992630,0.4536,0.4907,-0.2627,-204.82,-107.50,-73.78
548,1501997628,0.4419,0.4648,-0.2568,-197.62,-110.00,-72.87
549,1502002629,0.4561,0.4658,-0.2344,-190.49,-112.13,-72.13
550,1502007629,0.4116,0.5093,-0.2402,-183.54,-114.27,-71.52
551,1502012629,0.4434,0.5332,-0.2632,-177.26,-115.91,-70.79
552,1502017628,0.3877,0.5405,-0.2827,-171.77,-117.99,-70.18
553,1502022629,0.3101,0.6113,-0.2017,-168.35,-119.94,-69.15
554,1502027628,0.3770,0.6841,-0.1440,-167.99,-121.65,-68.66
555,1502032629,0.3579,0.6870,-0.2075,-169.70,-124.51,-68.05
556,1502037629,0.3506,0.6606,-0.2119,-172.93,-127.68,-67.26
557,1502042630,0.3452,0.6558,-0.1470,-175.55,-130.61,-66.46
558,1502047628,0.3203,0.6646,-0.1665,-177.50,-132.99,-65.98
559,1502052629,0.3887,0.6963,-0.2930,-177.32,-135.37,-65.73
560,1502057627,0.4961,0.7515,-0.4751,-170.24,-136.34,-64.63
561,1502062629,0.5391,0.8037,-0.6621,-152.32,-135.18,-61.83
562,1502067629,0.5415,0.7808,-0.7202,-126.16,-131.65,-57.56
563,1502072627,0.4438,0.7354,-0.5962,-106.52,-127.74,-53.54
564,1502077627,0.3569,0.7192,-0.4131,-101.04,-124.70,-50.79
565,1502082627,0.3130,0.7368,-0.3550,-105.00,-122.87,-49.02
566,1502087627,0.2949,0.7500,-0.4160,-111.83,-122.26,-48.17
567,1502092628,0.3135,0.7349,-0.3818,-119.63,-122.62,-47.26
568,1502097629,0.2944,0.7334,-0.2832,-128.05,-122.99,-46.59
569,1502102628,0.2778,0.7412,-0.2827,-135.79,-123.48,-46.22
570,1502107628,0.2773,0.7578,-0.3037,-142.20,-124.76,-45.98
571,1502112629,0.2700,0.7637,-0.2876,-146.16,-126.04,-45.73
572,1502117628,0.2505,0.7612,-0.2632,-148.35,-127.20,-45.37
573,1502122631,0.2578,0.7544,-0.2397,-149.33,-128.60,-45.06
574,1502127629,0.2446,0.7578,-0.2471,-150.12,-130.18,-44.57
575,1502132629,0.2393,0.7720,-0.2568,-148.96,-131.77,-44.21
576,1502137628,0.2539,0.7788,-0.2617,-145.37,-133.05,-43.35
577,1502142630,0.2622,0.7852,-0.2500,-139.70,-133.96,-42.56
578,1502147628,0.2563,0.7871,-0.2734,-133.41,-135.18,-41.40
579,1502152629,0.2559,0.7871,-0.2769,-126.22,-136.28,-40.12
580,1502157629,0.2676,0.7856,-0.2568,-118.90,-137.13,-38.72
581,1502162630,0.2612,0.7842,-0.2681,-112.32,-137.93,-37.20
582,1502167628,0.2197,0.7856,-0.2803,-106.46,-138.60,-35.73
583,1502172629,0.2549,0.8003,-0.2915,-101.71,-139.02,-34.09
584,1502177628,0.2529,0.7891,-0.2832,-98.23,-139.15,-32.38
585,1502182629,0.2349,0.7896,-0.2705,-96.59,-139.39,-30.55
586,1502187629,0.2441,0.7910,-0.2744,-96.52,-139.45,-28.96
587,1502192628,0.2500,0.7822,-0.2695,-98.05,-139.51,-27.13
588,1502197630,0.2549,0.7773,-0.2466,-100.98,-139.76,-25.43
589,1502202631,0.2446,0.7803,-0.2261,-105.55,-140.18,-24.27
590,1502207628,0.2344,0.7783,-0.2192,-111.04,-140.73,-23.35
591,1502212629,0.2236,0.7773,-0.2256,-116.65,-141.65,-22.80
592,1502217629,0.2251,0.7769,-0.2144,-121.71,-142.80,-22.68
593,1502222629,0.2139,0.7778,-0.1992,-125.91,-143.78,-22.99
594,1502227628,0.2021,0.7783,-0.2061,-128.78,-144.88,-23.48
595,1502232629,0.1987,0.7725,-0.2153,-129.94,-145.85,-23.96
596,1502237628,0.2061,0.7793,-0.2129,-128.66,-146.83,-24.51
597,1502242629,0.2153,0.7822,-0.2212,-125.12,-147.44,-24.76
598,1502247629,0.2080,0.7666,-0.2217,-119.76,-148.11,-24.51
599,1502252629,0.2026,0.7598,-0.1973,-114.45,-148.78,-24.27
600,1502257783,0.2139,0.7510,-0.1660,-110.18,-149.45,-24.15
601,1502262630,0.2256,0.7334,-0.1523,-106.89,-150.18,-24.15
602,1502267628,0.2144,0.7168,-0.1616,-103.60,-151.22,-23.84
603,1502272629,0.2329,0.7388,-0.1733,-98.84,-152.07,-22.87
604,1502277629,0.2407,0.7446,-0.1567,-91.83,-152.93,-21.89
605,1502282629,0.2388,0.7373,-0.1143,-87.38,-153.78,-20.85
606,1502287628,0.2456,0.7393,-0.1167,-85.37,-155.12,-20.37
607,1502292629,0.2446,0.7319,-0.1250,-84.33,-156.59,-19.94
608,1502297628,0.2437,0.7251,-0.1157,-84.39,-157.80,-19.51
609,1502302630,0.2603,0.7261,-0.1143,-85.55,-158.72,-19.45
610,1502307629,0.2456,0.7266,-0.1152,-87.74,-159.70,-19.57
611,1502312629,0.2139,0.7188,-0.1230,-91.34,-160.06,-20.06
612,1502317628,0.1997,0.7046,-0.1118,-95.67,-160.18,-20.98
613,1502322629,0.2056,0.7051,-0.1050,-99.82,-159.94,-22.13
614,1502327628,0.2080,0.7085,-0.1079,-103.17,-159.70,-23.72
615,1502332630,0.1914,0.6953,-0.1016,-105.55,-159.45,-25.49
616,1502337629,0.1821,0.6841,-0.0854,-107.07,-159.09,-27.20
617,1502342629,0.1904,0.6748,-0.0654,-106.89,-158.72,-29.09
618,1502347628,0.2085,0.6758,-0.0566,-105.06,-158.48,-30.85
619,1502352629,0.2231,0.6675,-0.0454,-101.46,-158.17,-32.50
620,1502357628,0.2329,0.6660,-0.0366,-96.22,-158.17,-33.90
621,1502362629,0.2490,0.6572,-0.0269,-89.82,-158.54,-34.88
622,1502367629,0.2871,0.6548,-0.0112,-82.38,-159.09,-35.37
623,1502372630,0.3154,0.6602,0.0088,-74.82,-159.21,-35.55
624,1502377628,0.3340,0.6650,0.0020,-67.44,-159.51,-35.43
625,1502382629,0.3408,0.6611,-0.0220,-60.49,-160.18,-35.06
626,1502387628,0.3521,0.6719,-0.0283,-54.15,-160.85,-34.51
627,1502392629,0.3604,0.6831,-0.0303,-48.84,-161.34,-33.96
628,1502397629,0.3574,0.6890,-0.0381,-44.63,-161.65,-33.48
629,1502402630,0.3584,0.6978,-0.0337,-41.65,-161.83,-32.87
630,1502407628,0.3569,0.7046,-0.0234,-39.33,-161.89,-32.20
631,1502412629,0.3667,0.7173,-0.0171,-37.07,-161.52,-31.34
632,1502417628,0.3901,0.7246,-0.0317,-34.57,-161.10,-30.43
633,1502422629,0.3931,0.7373,-0.0366,-31.71,-160.73,-29.33
634,1502427629,0.3726,0.7529,-0.0303,-28.90,-159.88,-28.29
635,1502432629,0.3594,0.7480,-0.0312,-25.91,-159.09,-27.20
636,1502437628,0.3560,0.7500,-0.0420,-22.68,-158.05,-25.85
637,1502442629,0.3569,0.7505,-0.0396,-18.66,-156.95,-24.33
638,1502447628,0.3477,0.7617,-0.0342,-13.78,-155.61,-22.56
639,1502452629,0.3198,0.7749,-0.0327,-8.29,-154.33,-20.61
640,1502457629,0.3052,0.7881,-0.0459,-2.20,-153.17,-18.84
641,1502462629,0.2988,0.7915,-0.0439,4.70,-152.01,-16.77
642,1502467628,0.2964,0.8047,-0.0459,12.07,-150.98,-14.51
643,1502472630,0.2983,0.8311,-0.0283,19.94,-150.24,-11.89
644,1502477628,0.3188,0.8403,-0.0361,28.23,-149.51,-9.15
645,1502482629,0.3467,0.8433,-0.0205,37.07,-149.33,-5.91
646,1502487628,0.3970,0.8584,-0.0107,46.16,-149.21,-2.32
647,1502492630,0.4229,0.8604,-0.0146,54.57,-149.15,1.46
648,1502497677,0.4136,0.8833,-0.0161,62.07,-149.45,5.37
649,1502502629,0.4082,0.9072,-0.0239,67.99,-149.76,9.33
650,1502507629,0.4023,0.9243,-0.0312,72.01,-150.24,13.41
651,1502512630,0.3853,0.9355,-0.0449,73.90,-150.67,17.50
652,1502517628,0.3784,0.9375,-0.0381,73.35,-150.85,21.52
653,1502522629,0.3608,0.9453,-0.0117,71.04,-150.67,25.79
654,1502527627,0.3384,0.9473,-0.0166,67.74,-150.06,30.12
655,1502532629,0.3252,0.9551,-0.0308,64.27,-149.21,34.57
656,1502537629,0.3145,0.9668,-0.0376,61.71,-148.23,39.21
657,1502542629,0.3188,0.9746,-0.0503,60.49,-147.26,43.96
658,1502547628,0.3335,0.9785,-0.0781,60.85,-146.46,49.15
659,1502552629,0.3452,0.9800,-0.0874,62.87,-145.85,54.70
660,1502557628,0.3447,0.9736,-0.0903,66.71,-145.00,60.61
661,1502562629,0.3452,0.9771,-0.0938,72.32,-144.21,66.83
662,1502567629,0.3628,0.9844,-0.1157,79.76,-143.60,73.29
663,1502572630,0.3770,0.9941,-0.1436,88.17,-142.93,80.00
664,1502577627,0.3823,1.0088,-0.1606,97.32,-142.44,87.07
665,1502582629,0.4014,1.0186,-0.1914,106.34,-142.07,93.54
666,1502587627,0.4248,1.0269,-0.2163,113.84,-141.89,100.55
667,1502592628,0.4473,1.0327,-0.2114,119.09,-141.52,107.62
668,1502597629,0.4590,1.0352,-0.2046,121.71,-141.22,114.76
669,1502602628,0.4634,1.0298,-0.2168,121.89,-140.73,121.83
670,1502607627,0.4653,1.0239,-0.2324,120.37,-140.00,128.90
671,1502612629,0.4580,1.0127,-0.2368,118.05,-139.33,135.79
672,1502617933,0.4561,1.0049,-0.2461,115.49,-138.41,142.74
673,1502622629,0.4570,0.9902,-0.2700,113.72,-137.38,149.76
674,1502627628,0.4453,0.9736,-0.2832,112.80,-136.52,156.46
675,1502632629,0.4507,0.9512,-0.2925,113.17,-135.30,163.29
676,1502637629,0.4580,0.9326,-0.3120,114.88,-134.09,170.00
677,1502642629,0.4570,0.9131,-0.3296,117.74,-132.56,176.52
678,1502647628,0.4482,0.8892,-0.3530,121.10,-130.91,182.93
679,1502652630,0.4556,0.8589,-0.3618,124.63,-129.15,189.21
680,1502657628,0.4731,0.8433,-0.3691,128.54,-127.01,195.18
681,1502662629,0.4868,0.8252,-0.3882,131.89,-124.82,201.04
682,1502667856,0.4912,0.7983,-0.4180,135.43,-122.74,206.83
683,1502672630,0.4941,0.7754,-0.4321,138.66,-120.85,212.50
684,1502677629,0.5044,0.7456,-0.4478,141.71,-118.96,218.05
685,1502682629,0.5137,0.7090,-0.4541,144.39,-117.07,223.78
686,1502687629,0.5342,0.6714,-0.4819,146.71,-115.49,229.82
687,1502692627,0.5396,0.6309,-0.5020,148.78,-113.66,235.91
688,1502697629,0.5298,0.6016,-0.5269,150.73,-111.59,242.13
689,1502702629,0.5059,0.5649,-0.5439,152.56,-108.78,248.48
690,1502707837,0.4922,0.5303,-0.5542,154.33,-105.67,254.63
691,1502712629,0.4941,0.4907,-0.5620,156.46,-101.77,260.98
692,1502717628,0.4868,0.4565,-0.5811,159.15,-97.50,266.89
693,1502722629,0.4692,0.4307,-0.6021,162.62,-92.44,272.74
694,1502727629,0.4355,0.4014,-0.6079,166.77,-87.44,278.11
695,1502732629,0.4136,0.3857,-0.6230,171.34,-81.83,283.11
696,1502737628,0.4053,0.3560,-0.6357,176.28,-75.91,287.56
697,1502742629,0.4062,0.3271,-0.6641,181.16,-70.12,291.59
698,1502747628,0.4048,0.2983,-0.6958,185.91,-64.33,295.37
699,1502752629,0.4082,0.2622,-0.7241,190.24,-58.72,298.78
700,1502757629,0.4072,0.2158,-0.7534,193.54,-53.48,302.20
701,1502762629,0.4038,0.1660,-0.7842,195.67,-48.23,305.67
702,1502767628,0.3960,0.1050,-0.7998,197.01,-43.11,309.39
703,1502772629,0.3828,0.0488,-0.8091,197.50,-37.62,313.29
704,1502777628,0.3901,0.0000,-0.8042,197.32,-32.32,317.62
705,1502782630,0.4048,-0.0366,-0.7764,196.83,-26.59,322.01
706,1502787629,0.4097,-0.0557,-0.7563,196.34,-20.73,326.34
707,1502792629,0.4019,-0.0684,-0.7388,195.79,-14.76,330.30
708,1502797628,0.3901,-0.0767,-0.7158,195.37,-9.15,333.66
709,1502802630,0.3789,-0.0732,-0.6890,194.70,-3.35,336.16
710,1502807628,0.3623,-0.0742,-0.6675,194.02,2.32,337.87
711,1502812629,0.3574,-0.0762,-0.6577,193.54,7.80,338.90
712,1502817629,0.3428,-0.0898,-0.6445,192.93,13.11,339.57
713,1502822629,0.3271,-0.1172,-0.6455,192.99,18.11,340.00
714,1502827627,0.3003,-0.1709,-0.6567,192.74,22.80,340.49
715,1502832627,0.2544,-0.2617,-0.6714,192.20,27.13,341.65
716,1502837628,0.1738,-0.3701,-0.6724,190.61,30.91,343.78
717,1502842630,0.1123,-0.4810,-0.6475,187.74,35.00,346.65
718,1502847629,0.0830,-0.5728,-0.5913,184.27,39.45,350.06
719,1502852629,0.0747,-0.6299,-0.5244,181.10,44.09,354.09
720,1502857628,0.0801,-0.6470,-0.4854,179.76,49.27,357.87
721,1502862629,0.0806,-0.6479,-0.4727,181.40,54.51,361.34
722,1502867628,0.0806,-0.6172,-0.4731,186.04,59.21,364.21
723,1502872629,0.0898,-0.5625,-0.4932,193.84,63.35,366.04
724,1502877629,0.0938,-0.5005,-0.5278,203.23,66.95,366.65
725,1502882630,0.0884,-0.4502,-0.5615,212.38,69.33,365.85
726,1502887792,0.1011,-0.4409,-0.5566,218.54,71.28,363.78
727,1502892630,0.1382,-0.4731,-0.5024,219.63,73.29,360.79
728,1502897627,0.1396,-0.5337,-0.4326,215.00,76.16,357.62
729,1502902628,0.0703,-0.6089,-0.3818,204.51,79.88,354.33
730,1502907630,-0.0649,-0.6924,-0.3535,189.21,84.45,351.10
731,1502912629,-0.2432,-0.7959,-0.3726,170.79,87.32,348.54
732,1502917629,-0.4028,-0.8940,-0.3789,151.22,91.40,346.89
733,1502922629,-0.5132,-0.9546,-0.3794,132.80,94.88,346.16
734,1502927629,-0.5537,-0.9956,-0.3667,118.35,97.68,346.16
735,1502932627,-0.5327,-1.0137,-0.3247,108.41,100.12,346.65
736,1502937629,-0.4487,-1.0327,-0.3267,104.39,101.59,347.62
737,1502942629,-0.3555,-1.0210,-0.3291,106.16,102.44,348.54
738,1502947629,-0.3022,-0.9917,-0.3213,112.62,102.26,348.90
739,1502952627,-0.2642,-0.9487,-0.3071,121.95,101.77,347.93
740,1502957629,-0.2173,-0.9336,-0.3047,131.77,100.73,345.61
741,1502962628,-0.1763,-0.9595,-0.2964,140.98,99.27,342.07
742,1502967630,-0.1577,-0.9878,-0.2637,147.20,97.80,337.74
743,1502972627,-0.1777,-1.0308,-0.2261,149.02,97.07,332.44
744,1502977629,-0.2456,-1.0796,-0.2109,145.43,96.28,326.10
745,1502982739,-0.3438,-1.1270,-0.1890,135.91,95.55,318.84
746,1502987631,-0.4292,-1.1841,-0.1533,121.95,94.63,310.91
747,1502992627,-0.5083,-1.2334,-0.1187,104.02,93.48,302.80
748,1502997627,-0.5884,-1.2729,-0.0957,84.09,91.77,294.70
749,1503002627,-0.6445,-1.2998,-0.0801,63.72,89.45,286.65
750,1503007627,-0.6636,-1.3110,-0.0762,44.57,86.10,278.96
751,1503012629,-0.6660,-1.3208,-0.0713,28.23,82.80,271.89
752,1503017629,-0.6431,-1.3247,-0.0630,15.85,77.50,265.43
753,1503022628,-0.6099,-1.3076,-0.0532,7.87,71.65,259.45
754,1503027744,-0.5679,-1.3008,-0.0527,4.70,65.18,254.21
755,1503032656,-0.5298,-1.3081,-0.0771,5.67,58.35,249.45
756,1503038070,-0.4971,-1.3110,-0.0952,9.21,51.34,245.12
757,1503042629,-0.4805,-1.3354,-0.1055,13.84,43.90,240.91
758,1503047630,-0.4995,-1.3701,-0.1060,17.80,37.13,236.46
759,1503052629,-0.5269,-1.3921,-0.0869,19.51,30.85,231.34
760,1503057628,-0.5303,-1.4136,-0.0894,18.90,24.94,225.79
761,1503062629,-0.5137,-1.4321,-0.1128,15.85,19.15,219.39
762,1503067628,-0.4980,-1.4565,-0.1421,10.79,13.05,212.62
763,1503072629,-0.4795,-1.4717,-0.1328,3.17,6.89,205.49
764,1503077630,-0.4731,-1.4751,-0.1187,-5.98,0.73,197.87
765,1503082629,-0.4678,-1.4956,-0.1182,-15.91,-5.37,189.88
766,1503087627,-0.4702,-1.5142,-0.1323,-26.16,-11.16,181.77
767,1503092627,-0.4810,-1.5239,-0.1523,-35.61,-17.44,173.54
768,1503097628,-0.4814,-1.5205,-0.1558,-43.35,-23.41,165.49
769,1503102630,-0.4829,-1.5264,-0.1626,-48.84,-29.51,157.13
770,1503107629,-0.4844,-1.5352,-0.1870,-51.71,-35.43,148.96
771,1503112629,-0.4673,-1.5337,-0.1963,-52.07,-41.46,141.10
772,1503118149,-0.4473,-1.5308,-0.2095,-50.37,-47.68,133.35
773,1503122631,-0.4492,-1.5249,-0.2080,-47.13,-53.90,125.79
774,1503127628,-0.4551,-1.5288,-0.2036,-43.29,-60.12,118.35
775,1503132629,-0.4390,-1.5200,-0.1934,-39.57,-66.71,111.10
776,1503137629,-0.4229,-1.5063,-0.1831,-35.98,-73.35,104.15
777,1503142629,-0.4014,-1.4961,-0.1748,-32.62,-80.49,97.56
778,1503147628,-0.3970,-1.5015,-0.1714,-29.88,-88.11,91.28
779,1503152629,-0.3906,-1.5049,-0.1743,-28.17,-95.91,85.67
780,1503157628,-0.3828,-1.5122,-0.1875,-27.74,-104.15,79.82
781,1503162629,-0.4077,-1.5225,-0.1797,-28.90,-112.38,74.02
782,1503167629,-0.4517,-1.5278,-0.1729,-31.65,-120.00,68.41
783,1503172629,-0.4897,-1.5337,-0.1841,-35.18,-127.07,62.38
784,1503177627,-0.5293,-1.5269,-0.2041,-39.51,-134.09,55.85
785,1503182629,-0.5459,-1.5181,-0.2275,-43.96,-140.61,49.09
786,1503187628,-0.5210,-1.5161,-0.2441,-48.11,-147.07,41.52
787,1503192690,-0.5083,-1.5176,-0.2568,-51.46,-153.05,34.09
788,1503197632,-0.5200,-1.5010,-0.2573,-53.84,-158.54,26.34
789,1503202629,-0.5278,-1.4790,-0.2598,-54.82,-163.48,18.54
790,1503207629,-0.5283,-1.4595,-0.2710,-53.84,-168.23,10.85
791,1503212627,-0.5146,-1.4497,-0.3047,-51.16,-172.99,3.41
792,1503217629,-0.5142,-1.4429,-0.3413,-47.07,-178.17,-3.60
793,1503222628,-0.4990,-1.4414,-0.3750,-42.50,-183.60,-10.00
794,1503227629,-0.4844,-1.4399,-0.3916,-38.17,-189.09,-16.04
795,1503232627,-0.4897,-1.4468,-0.4194,-34.27,-194.09,-21.71
796,1503237629,-0.5312,-1.4595,-0.4478,-31.59,-198.60,-26.89
797,1503242628,-0.5933,-1.4644,-0.4565,-30.55,-202.56,-32.13
798,1503247629,-0.6519,-1.4614,-0.4683,-31.04,-205.85,-37.20
799,1503252627,-0.6895,-1.4443,-0.4785,-32.62,-208.90,-42.13
800,1503257629,-0.7100,-1.4355,-0.4980,-34.51,-211.95,-47.13
801,1503262628,-0.6948,-1.4087,-0.4937,-36.46,-215.18,-51.95
802,1503267629,-0.6753,-1.3896,-0.4858,-38.05,-218.54,-56.83
803,1503272627,-0.6387,-1.3804,-0.4971,-38.78,-221.77,-61.46
804,1503277630,-0.5654,-1.3472,-0.4937,-38.66,-225.00,-66.10
805,1503282628,-0.5400,-1.3130,-0.4819,-36.95,-227.44,-70.79
806,1503287629,-0.5659,-1.2974,-0.4922,-33.60,-228.84,-75.30
807,1503292627,-0.6001,-1.2773,-0.5190,-28.84,-229.70,-79.63
808,1503297629,-0.6558,-1.2676,-0.5703,-23.23,-230.43,-83.78
809,1503302628,-0.6899,-1.2607,-0.6177,-17.13,-231.04,-87.44
810,1503307629,-0.7026,-1.2539,-0.6392,-11.89,-232.01,-90.67
811,1503312631,-0.7065,-1.2515,-0.6431,-7.50,-233.17,-93.72
812,1503317629,-0.6953,-1.2451,-0.6548,-4.94,-234.33,-96.22
813,1503322630,-0.6465,-1.2319,-0.6362,-3.35,-235.49,-98.29
814,1503327629,-0.5942,-1.2158,-0.6318,-2.62,-236.46,-100.37
815,1503332629,-0.5615,-1.1987,-0.6235,-2.26,-237.44,-101.95
816,1503337628,-0.5439,-1.1665,-0.6133,-1.59,-238.35,-103.60
817,1503342629,-0.5630,-1.1392,-0.6240,-0.43,-238.72,-105.24
818,1503347628,-0.5972,-1.1245,-0.6475,1.40,-239.09,-106.83
819,1503352629,-0.6201,-1.1050,-0.6719,3.72,-239.15,-108.72
820,1503357630,-0.6562,-1.0830,-0.6826,6.22,-238.84,-110.61
821,1503362629,-0.6807,-1.0757,-0.6724,8.23,-237.56,-112.68
822,1503367628,-0.6924,-1.0635,-0.6704,9.63,-235.91,-114.51
823,1503372629,-0.6997,-1.0566,-0.6895,10.91,-234.09,-116.10
824,1503377628,-0.7031,-1.0464,-0.7036,12.44,-232.38,-117.13
825,1503382629,-0.6934,-1.0347,-0.6938,14.21,-230.98,-117.56
826,1503387629,-0.6875,-1.0146,-0.6519,16.22,-229.70,-117.56
827,1503392629,-0.6606,-0.9951,-0.6494,18.90,-228.90,-117.01
828,1503397627,-0.6079,-0.9629,-0.6504,22.44,-228.72,-116.22
829,1503402629,-0.5640,-0.9214,-0.6313,26.40,-228.72,-115.37
830,1503407628,-0.5391,-0.8999,-0.6182,30.73,-228.72,-114.33
831,1503412629,-0.5151,-0.8838,-0.6177,35.06,-228.48,-113.48
832,1503417629,-0.5112,-0.8770,-0.6626,38.84,-228.35,-112.62
833,1503422629,-0.5405,-0.8809,-0.6768,41.59,-227.80,-111.89
834,1503427628,-0.5903,-0.8823,-0.6973,42.93,-226.77,-111.40
835,1503432629,-0.6367,-0.8779,-0.7231,42.87,-225.37,-111.34
836,1503437628,-0.6797,-0.8726,-0.7617,41.89,-223.54,-111.34
837,1503442629,-0.7021,-0.8716,-0.7485,40.12,-221.22,-111.40
838,1503447629,-0.7227,-0.8745,-0.7266,38.35,-218.78,-111.04
839,1503452629,-0.7285,-0.8730,-0.7144,37.20,-216.16,-110.37
840,1503457627,-0.7090,-0.8530,-0.7056,37.68,-214.09,-109.39
841,1503462629,-0.6753,-0.8354,-0.7007,39.45,-212.38,-108.11
842,1503467628,-0.6514,-0.8281,-0.6826,42.13,-211.22,-106.71
843,1503472629,-0.6602,-0.8218,-0.6509,44.94,-210.06,-105.18
844,1503477629,-0.6196,-0.8184,-0.6348,47.38,-209.02,-103.72
845,1503482629,-0.5703,-0.8120,-0.6372,49.51,-207.68,-102.13
846,1503487627,-0.5811,-0.8013,-0.6299,52.13,-206.10,-100.30
847,1503492629,-0.6045,-0.8057,-0.6387,53.60,-204.76,-99.02
848,1503497628,-0.6411,-0.8120,-0.6509,54.45,-203.23,-97.56
849,1503502629,-0.6748,-0.8174,-0.6426,54.09,-201.83,-96.04
850,1503507627,-0.6929,-0.8247,-0.6050,52.13,-200.55,-94.33
851,1503512627,-0.6992,-0.8306,-0.5767,49.15,-199.51,-92.44
852,1503517639,-0.6763,-0.8184,-0.5342,45.79,-198.72,-90.43
853,1503522629,-0.6597,-0.8105,-0.5015,42.56,-198.41,-88.17
854,1503527629,-0.6577,-0.8223,-0.4502,40.06,-198.11,-85.61
855,1503532627,-0.6621,-0.8286,-0.4175,38.78,-198.48,-82.80
856,1503537629,-0.6479,-0.8354,-0.4014,39.09,-199.02,-79.70
857,1503542632,-0.5664,-0.8018,-0.3867,40.91,-199.94,-76.65
858,1503547627,-0.4570,-0.7754,-0.3896,44.15,-201.04,-73.96
859,1503552627,-0.4404,-0.7891,-0.3936,48.23,-202.20,-71.40
860,1503557627,-0.4902,-0.8149,-0.3887,51.95,-203.11,-68.84
861,1503562627,-0.5581,-0.8516,-0.3726,54.27,-203.29,-66.28
862,1503567627,-0.6064,-0.8960,-0.3789,54.88,-203.35,-63.78
863,1503572627,-0.5845,-0.9375,-0.4043,54.09,-203.35,-60.85
864,1503577627,-0.5239,-0.9551,-0.4214,53.05,-202.87,-57.93
865,1503582628,-0.4941,-0.9741,-0.4395,52.20,-202.38,-55.18
866,1503587631,-0.4688,-0.9878,-0.4521,51.65,-201.52,-52.26
867,1503592752,-0.4546,-1.0117,-0.4731,51.89,-200.49,-49.51
868,1503597631,-0.4751,-1.0220,-0.4961,52.87,-198.96,-46.89
869,1503602628,-0.5137,-1.0317,-0.5034,54.70,-197.32,-44.57
870,1503607716,-0.5908,-1.0596,-0.5020,57.20,-195.67,-42.68
871,1503612629,-0.6602,-1.0781,-0.5000,60.24,-194.45,-41.16
872,1503617627,-0.6890,-1.0942,-0.4683,63.72,-193.41,-40.06
873,1503622627,-0.6689,-1.1030,-0.4448,67.50,-192.68,-39.51
874,1503627627,-0.6230,-1.1108,-0.4077,71.04,-192.80,-39.39
875,1503632627,-0.5630,-1.1113,-0.3467,73.84,-193.48,-39.94
876,1503637663,-0.4624,-1.0781,-0.2896,75.79,-194.76,-41.28
877,1503642627,-0.3096,-1.0552,-0.2847,77.26,-196.52,-43.41
878,1503647627,-0.1924,-1.0469,-0.2871,78.48,-199.27,-45.79
879,1503652627,-0.1699,-1.0664,-0.2788,78.84,-202.26,-48.72
880,1503657627,-0.1958,-1.0981,-0.2534,77.62,-204.70,-51.34
881,1503662627,-0.2378,-1.1436,-0.2373,75.00,-206.59,-54.15
882,1503667627,-0.2734,-1.1816,-0.2568,71.28,-207.80,-56.77
883,1503672732,-0.3140,-1.2339,-0.2856,67.26,-208.66,-59.39
884,1503677629,-0.3525,-1.3184,-0.3022,63.05,-209.45,-61.95
885,1503682628,-0.4033,-1.3916,-0.2827,58.54,-209.82,-64.57
886,1503688049,-0.4424,-1.4551,-0.2656,54.57,-209.70,-67.44
887,1503692629,-0.4712,-1.5112,-0.2764,52.01,-209.70,-70.73
888,1503697629,-0.4819,-1.5386,-0.2676,52.01,-209.94,-74.33
889,1503702629,-0.4883,-1.5503,-0.2427,55.18,-210.12,-78.23
890,1503707629,-0.4785,-1.5684,-0.2163,61.83,-210.73,-82.56
891,1503712629,-0.4443,-1.5586,-0.2007,71.46,-211.71,-87.20
892,1503717628,-0.4004,-1.5439,-0.2021,83.54,-213.29,-91.89
893,1503722629,-0.3359,-1.5122,-0.1934,96.71,-215.73,-96.59
894,1503727627,-0.2524,-1.4736,-0.2070,109.76,-218.66,-101.65
895,1503732627,-0.1992,-1.4497,-0.2388,122.87,-221.95,-108.05
896,1503737629,-0.2168,-1.4561,-0.2637,128.96,-224.15,-112.50
897,1503742628,-0.2725,-1.4668,-0.2739,130.98,-226.52,-118.48
898,1503747630,-0.3071,-1.4673,-0.2905,129.51,-228.48,-124.94
899,1503752629,-0.3291,-1.4736,-0.3218,123.54,-229.88,-131.95
900,1503757628,-0.3599,-1.4785,-0.3477,115.06,-230.85,-139.33
901,1503762629,-0.3789,-1.4912,-0.3628,105.18,-231.52,-147.20
902,1503767629,-0.4019,-1.5112,-0.3574,94.76,-231.77,-155.24
903,1503772630,-0.4062,-1.5171,-0.3423,85.06,-231.83,-163.54
904,1503777629,-0.4058,-1.5239,-0.3208,77.44,-231.83,-171.46
905,1503782629,-0.3975,-1.5298,-0.2876,72.87,-231.65,-179.15
906,1503787629,-0.3535,-1.5303,-0.2505,72.13,-231.59,-185.91
907,1503792628,-0.2910,-1.5078,-0.2168,75.43,-231.40,-192.01
908,1503797630,-0.2188,-1.4941,-0.2046,82.13,-231.59,-197.26
909,1503802628,-0.1602,-1.4824,-0.2109,91.59,-231.95,-201.83
910,1503807629,-0.1411,-1.4741,-0.2070,102.26,-232.62,-205.85
911,1503812631,-0.1416,-1.4561,-0.2036,112.87,-233.23,-209.39
912,1503817628,-0.1382,-1.4521,-0.2227,122.44,-233.84,-212.68
913,1503822629,-0.1230,-1.4385,-0.2275,130.12,-234.51,-215.98
914,1503827627,-0.1357,-1.4272,-0.2559,134.82,-234.94,-219.33
915,1503832629,-0.1616,-1.4072,-0.2754,136.83,-235.06,-222.93
916,1503837628,-0.1724,-1.4014,-0.3037,136.77,-234.88,-226.71
917,1503842629,-0.1851,-1.3872,-0.3198,135.43,-234.51,-230.67
918,1503847627,-0.1929,-1.3677,-0.3247,133.23,-233.96,-234.76
919,1503852627,-0.1831,-1.3472,-0.3364,131.46,-233.05,-238.78
920,1503857629,-0.1543,-1.3247,-0.3589,130.30,-232.20,-242.74
921,1503863327,-0.1309,-1.3120,-0.3735,130.06,-231.40,-247.32
922,1503867629,-0.1118,-1.3086,-0.3936,131.65,-230.85,-250.12
923,1503872629,-0.0728,-1.2905,-0.4048,132.32,-229.82,-253.78
924,1503877629,-0.0493,-1.2710,-0.4126,133.11,-228.48,-257.50
925,1503882628,-0.0312,-1.2544,-0.4404,134.57,-226.95,-261.34
926,1503887629,-0.0059,-1.2451,-0.4790,136.59,-225.30,-265.24
927,1503892628,0.0083,-1.2368,-0.5186,138.90,-223.54,-269.21
928,1503897630,0.0293,-1.2212,-0.5527,141.04,-221.04,-273.54
929,1503902629,0.0127,-1.2139,-0.5889,142.93,-217.99,-277.87
930,1503907629,-0.0215,-1.1851,-0.6079,144.51,-214.51,-282.20
931,1503912628,-0.0352,-1.1494,-0.6206,145.91,-210.55,-286.71
932,1503917629,-0.0366,-1.1260,-0.6309,147.44,-206.22,-290.79
933,1503922628,-0.0117,-1.0908,-0.6304,149.27,-201.77,-294.70
934,1503927630,0.0293,-1.0522,-0.6226,152.01,-197.44,-297.93
935,1503932629,0.0781,-1.0073,-0.6221,155.67,-193.35,-300.55
936,1503937629,0.1162,-0.9580,-0.6265,160.30,-190.18,-302.38
937,1503942630,0.1431,-0.9131,-0.6245,165.12,-187.38,-303.90
938,1503947629,0.1797,-0.8784,-0.6338,169.39,-185.00,-304.76
939,1503952628,0.2100,-0.8418,-0.6426,172.44,-182.87,-305.30
940,1503957629,0.2402,-0.8511,-0.6772,174.27,-180.91,-305.49
941,1503962629,0.2539,-0.8315,-0.6987,174.09,-178.72,-305.61
942,1503967629,0.2520,-0.8037,-0.7412,171.77,-176.22,-306.46
943,1503972628,0.2261,-0.7749,-0.8003,167.93,-173.23,-308.05
944,1503977629,0.2065,-0.7466,-0.8486,163.05,-169.82,-310.06
945,1503982628,0.1870,-0.7168,-0.8594,157.99,-165.43,-312.32
946,1503987629,0.1372,-0.6880,-0.8877,153.54,-160.43,-314.76
947,1503992629,0.0977,-0.6333,-0.9199,150.24,-154.82,-317.01
948,1503997629,0.0752,-0.5815,-0.9131,148.60,-148.90,-319.27
949,1504002714,0.0669,-0.5122,-0.8950,148.84,-142.80,-321.04
950,1504007629,0.0796,-0.4604,-0.8740,151.34,-136.77,-322.13
951,1504012628,0.1123,-0.4155,-0.8623,156.16,-131.22,-322.26
952,1504017629,0.1323,-0.3613,-0.8359,162.99,-126.40,-321.34
953,1504022628,0.1543,-0.3184,-0.8042,170.91,-122.32,-319.76
954,1504027629,0.2207,-0.3037,-0.7930,179.63,-118.72,-317.20
955,1504032627,0.3027,-0.3027,-0.8438,188.05,-116.22,-313.54
956,1504037629,0.3042,-0.2695,-0.8584,193.41,-114.39,-309.88
957,1504042629,0.2451,-0.2485,-0.8633,192.80,-112.07,-306.95
958,1504047629,0.1948,-0.2310,-0.8892,185.85,-109.27,-304.94
959,1504052628,0.1958,-0.2017,-0.9375,174.88,-105.67,-303.11
960,1504057629,0.1895,-0.1631,-0.9517,161.89,-101.40,-301.65
961,1504062631,0.1528,-0.1133,-0.9697,148.72,-96.28,-300.61
962,1504067628,0.1289,-0.0615,-0.9854,137.01,-90.37,-300.12
963,1504072629,0.1094,0.0073,-0.9922,129.21,-83.90,-299.51
964,1504077627,0.1309,0.0781,-0.9937,125.67,-77.56,-298.48
965,1504082629,0.1860,0.1265,-0.9736,126.95,-71.22,-296.40
966,1504087628,0.2456,0.1597,-0.9580,133.11,-65.12,-293.05
967,1504092630,0.2944,0.2056,-0.9443,142.56,-59.27,-288.54
968,1504097627,0.3228,0.2407,-0.9434,153.41,-53.96,-283.17
969,1504102631,0.3447,0.2764,-0.9165,163.96,-49.21,-277.26
970,1504107628,0.3721,0.2827,-0.8979,172.93,-44.76,-270.98
971,1504112629,0.4175,0.2817,-0.9023,180.12,-41.16,-264.39
972,1504117628,0.4209,0.3003,-0.9185,184.94,-38.05,-258.23
973,1504122632,0.3970,0.3149,-0.9092,186.34,-35.30,-252.56
974,1504128128,0.3789,0.3369,-0.9019,182.62,-31.89,-247.26
975,1504132629,0.3652,0.3398,-0.9106,176.95,-29.82,-244.70
976,1504137630,0.3472,0.3511,-0.9043,166.46,-26.89,-242.56
977,1504142629,0.3442,0.3755,-0.8872,153.05,-23.84,-241.71
978,1504147627,0.3218,0.4258,-0.8779,138.78,-20.67,-241.71
979,1504152631,0.2754,0.4507,-0.8965,126.28,-17.38,-241.95
980,1504157628,0.2905,0.4888,-0.8706,116.22,-14.27,-241.83
981,1504162629,0.3242,0.5107,-0.8623,110.00,-10.91,-241.10
982,1504167627,0.3013,0.5557,-0.8540,108.35,-7.74,-239.82
983,1504172629,0.2554,0.5962,-0.8374,110.79,-4.57,-238.23
984,1504177629,0.2217,0.6411,-0.8130,116.04,-1.83,-236.22
985,1504182629,0.2153,0.6772,-0.7812,122.87,0.73,-233.72
986,1504187628,0.2285,0.7056,-0.7681,129.27,2.93,-230.79
987,1504192629,0.2168,0.7290,-0.7349,135.37,4.45,-227.32
988,1504197630,0.2705,0.7461,-0.7363,138.35,5.73,-224.02
989,1504202629,0.2510,0.7534,-0.7305,136.71,6.59,-220.79
990,1504207723,0.2725,0.7417,-0.6992,129.45,7.80,-217.80
991,1504212629,0.2979,0.7344,-0.6582,119.57,9.15,-214.88
992,1504217628,0.3350,0.7441,-0.6489,108.23,10.55,-211.95
993,1504222629,0.3569,0.7544,-0.6470,98.05,11.28,-209.09
994,1504227627,0.3589,0.7563,-0.5977,90.37,11.59,-206.22
995,1504232629,0.3462,0.7593,-0.5371,86.16,11.65,-203.23
996,1504237628,0.3535,0.7593,-0.5225,86.10,11.22,-200.18
997,1504242629,0.3726,0.7520,-0.5493,90.12,10.00,-196.89
998,1504247627,0.3311,0.7788,-0.5498,96.04,7.93,-193.72
999,1504252629,0.2441,0.8159,-0.5161,100.00,6.04,-191.40
1000,1504257628,0.1890,0.8149,-0.5054,100.12,5.12,-189.57
1001,1504262629,0.1821,0.8027,-0.5269,96.71,4.51,-187.87
1002,1504267627,0.1816,0.8174,-0.5483,91.28,4.45,-186.04
1003,1504272629,0.1440,0.8320,-0.5664,85.06,4.45,-184.21
1004,1504277628,0.1172,0.8462,-0.5776,78.66,4.70,-182.62
1005,1504282629,0.1016,0.8589,-0.5742,72.93,5.24,-180.73
1006,1504287627,0.0947,0.8784,-0.5503,68.35,5.79,-178.72
1007,1504292629,0.1030,0.8931,-0.5200,65.06,6.40,-176.40
1008,1504297628,0.1074,0.9102,-0.5151,64.02,6.89,-173.84
1009,1504302629,0.1196,0.9233,-0.4937,65.37,6.83,-170.98
1010,1504307627,0.1235,0.9302,-0.4468,68.84,6.77,-167.44
1011,1504312629,0.1538,0.9292,-0.4194,74.70,6.10,-163.48
1012,1504317629,0.2119,0.8979,-0.4575,82.62,4.39,-158.84
1013,1504322627,0.2573,0.8906,-0.4819,90.12,2.07,-153.78
1014,1504327627,0.2173,0.8828,-0.4932,93.23,-0.43,-149.70
1015,1504332629,0.1763,0.8438,-0.4995,88.66,-2.20,-146.77
1016,1504337629,0.1450,0.7954,-0.5137,76.28,-3.17,-144.94
1017,1504342629,0.1050,0.7520,-0.5420,58.84,-3.11,-144.09
1018,1504347629,0.0400,0.7300,-0.5781,39.70,-2.74,-143.90
1019,1504352629,-0.0474,0.7153,-0.6021,21.59,-1.71,-144.57
1020,1504357628,-0.1094,0.7095,-0.5815,7.01,-0.12,-145.43
1021,1504362629,-0.1167,0.7271,-0.5728,-1.10,2.26,-146.04
1022,1504367627,-0.1406,0.7554,-0.5781,-1.46,4.70,-146.28
1023,1504372629,-0.1621,0.7915,-0.5605,5.06,6.83,-145.98
1024,1504377628,-0.1655,0.8184,-0.5254,16.59,8.78,-145.37
1025,1504382629,-0.1670,0.8364,-0.4976,30.73,10.30,-143.90
1026,1504387627,-0.1431,0.8540,-0.4736,45.79,11.16,-141.95
1027,1504392629,-0.1172,0.8770,-0.4736,59.88,11.22,-139.39
1028,1504397628,-0.0962,0.8818,-0.4702,70.67,10.67,-136.40
1029,1504402630,-0.0532,0.8892,-0.4707,76.89,9.63,-133.29
1030,1504407627,-0.0132,0.9053,-0.4717,77.50,8.54,-130.12
1031,1504412629,-0.0010,0.8970,-0.4814,71.77,7.56,-127.38
1032,1504417629,0.0107,0.8872,-0.4800,59.33,6.77,-124.94
1033,1504422629,0.0322,0.8774,-0.4663,42.07,6.65,-122.87
1034,1504427627,0.0439,0.8721,-0.4658,22.44,6.89,-121.22
1035,1504432629,0.0493,0.8643,-0.4702,3.60,7.20,-119.51
1036,1504437628,0.0283,0.8696,-0.4624,-12.13,7.44,-118.05
1037,1504442629,-0.0366,0.8643,-0.4580,-23.78,7.93,-116.95
1038,1504447627,-0.0684,0.8447,-0.4316,-31.10,8.41,-115.85
1039,1504452629,-0.0845,0.8315,-0.4204,-33.29,8.96,-114.76
1040,1504457628,-0.1201,0.8232,-0.4126,-30.30,9.51,-113.41
1041,1504462629,-0.1665,0.8188,-0.4248,-23.29,9.82,-112.01
1042,1504467627,-0.2026,0.8145,-0.4097,-14.02,9.88,-110.43
1043,1504472629,-0.2139,0.8198,-0.3906,-4.02,9.57,-108.78
1044,1504477629,-0.2100,0.8115,-0.3867,5.49,9.15,-106.71
1045,1504482629,-0.2085,0.8232,-0.3848,13.66,8.66,-104.39
1046,1504487627,-0.1914,0.8511,-0.3755,19.94,7.74,-102.01
1047,1504492629,-0.1807,0.8647,-0.3760,24.21,6.65,-99.57
1048,1504497628,-0.1650,0.8755,-0.3657,25.61,5.49,-97.20
1049,1504502630,-0.1382,0.8887,-0.3579,24.70,4.27,-94.70
1050,1504507627,-0.1211,0.8999,-0.3643,21.71,3.35,-92.38
1051,1504512629,-0.1182,0.9033,-0.3628,17.01,2.56,-90.37
1052,1504517629,-0.1216,0.9116,-0.3657,11.10,1.95,-88.54
1053,1504522629,-0.1226,0.9058,-0.3828,4.45,1.34,-86.83
1054,1504527627,-0.1211,0.9067,-0.3892,-2.62,1.10,-85.37
1055,1504532627,-0.1465,0.9038,-0.3931,-10.06,0.85,-84.15
1056,1504537631,-0.1851,0.9189,-0.3867,-17.74,0.79,-82.93
1057,1504542629,-0.1865,1.0039,-0.3618,-24.82,0.79,-81.22
1058,1504547628,-0.1772,1.1548,-0.3428,-30.85,0.49,-78.72
1059,1504552629,-0.1997,1.2793,-0.3262,-35.85,-0.18,-74.21
1060,1504557627,-0.2349,1.3062,-0.3091,-39.39,-1.52,-68.11
1061,1504562629,-0.2422,1.2520,-0.2900,-39.45,-2.87,-61.77
1062,1504567628,-0.2432,1.1387,-0.2910,-34.51,-4.33,-56.16
1063,1504572629,-0.2432,1.0396,-0.3105,-24.82,-5.12,-51.46
1064,1504577627,-0.2393,0.9878,-0.3193,-12.13,-5.79,-47.62
1065,1504582629,-0.2266,0.9600,-0.3247,0.98,-6.34,-44.33
1066,1504587628,-0.2080,0.9502,-0.3506,12.44,-6.71,-41.22
1067,1504592629,-0.2026,0.9531,-0.3623,20.49,-6.95,-38.60
1068,1504597627,-0.2002,0.9604,-0.3560,24.27,-6.52,-36.28
1069,1504602629,-0.1968,0.9863,-0.3901,23.17,-6.10,-34.33
1070,1504607628,-0.1919,1.0049,-0.3848,18.54,-5.00,-32.93
1071,1504612629,-0.2075,0.9858,-0.3926,10.79,-3.84,-31.65
1072,1504617629,-0.2095,0.9399,-0.4082,1.71,-2.32,-30.67
1073,1504622627,-0.2153,0.9004,-0.4097,-7.01,-0.24,-30.18
1074,1504627627,-0.1963,0.8765,-0.3950,-13.05,1.77,-29.88
1075,1504632629,-0.1807,0.8628,-0.3931,-15.73,3.90,-29.57
1076,1504637628,-0.1528,0.8706,-0.3950,-14.76,5.73,-29.02
1077,1504642629,-0.1416,0.8667,-0.3906,-10.67,7.20,-28.23
1078,1504647627,-0.1338,0.8564,-0.3887,-5.00,8.60,-27.07
1079,1504652629,-0.1357,0.8535,-0.3931,1.04,9.51,-25.61
1080,1504657628,-0.1357,0.8428,-0.4175,6.52,10.00,-24.15
1081,1504662629,-0.1357,0.8379,-0.4282,10.43,10.30,-22.44
1082,1504667627,-0.1367,0.8486,-0.4253,11.77,10.12,-20.55
1083,1504672627,-0.1299,0.8818,-0.4326,10.30,9.94,-17.93
1084,1504677630,-0.1191,0.9282,-0.4185,7.68,9.45,-16.10
1085,1504682628,-0.1094,0.9927,-0.3984,3.17,8.78,-13.48
1086,1504687628,-0.1074,1.0542,-0.3901,-1.71,7.99,-10.30
1087,1504692629,-0.1074,1.0889,-0.3799,-6.04,7.20,-6.65
1088,1504697628,-0.0938,1.0879,-0.3677,-8.05,6.22,-2.80
1089,1504702629,-0.0820,1.0386,-0.3657,-6.65,5.37,0.55
1090,1504707628,-0.0703,0.9858,-0.3706,-1.71,4.76,3.17
1091,1504712629,-0.0649,0.9341,-0.3745,5.61,4.70,5.00
1092,1504717628,-0.0542,0.9048,-0.3745,13.96,5.00,5.98
1093,1504722629,-0.0449,0.8755,-0.3809,21.71,5.37,6.52
1094,1504727629,-0.0405,0.8428,-0.3896,27.68,5.98,6.83
1095,1504732629,-0.0288,0.8145,-0.4136,31.10,6.71,6.83
1096,1504737628,-0.0356,0.7993,-0.4321,31.04,7.44,6.46
1097,1504742629,-0.0596,0.7710,-0.4512,27.38,8.35,5.85
1098,1504747629,-0.0732,0.7534,-0.4707,20.73,9.02,5.24
1099,1504752629,-0.0762,0.7676,-0.4780,12.56,9.76,4.45
1100,1504757629,-0.0845,0.7964,-0.4873,3.90,10.30,4.09
1101,1504762629,-0.0918,0.8594,-0.4761,-4.27,10.61,3.84
1102,1504767627,-0.0962,0.9575,-0.4463,-11.16,10.55,3.96
1103,1504772629,-0.0991,1.0513,-0.4209,-16.46,10.12,5.06
1104,1504777628,-0.1050,1.0986,-0.4023,-19.82,9.45,6.71
1105,1504782629,-0.1035,1.0825,-0.3843,-20.24,8.54,8.72
1106,1504787627,-0.1035,1.0322,-0.3730,-17.07,7.56,10.73
1107,1504792629,-0.0952,0.9746,-0.3740,-10.12,7.07,12.20
1108,1504797628,-0.0830,0.9253,-0.3774,-0.79,6.46,13.17
1109,1504802629,-0.0591,0.8994,-0.3745,9.33,5.91,13.84
1110,1504807627,-0.0449,0.8789,-0.3696,18.54,5.55,14.09
1111,1504812630,-0.0366,0.8623,-0.3667,25.30,5.18,14.33
1112,1504817715,-0.0210,0.8525,-0.3682,28.60,5.12,14.33
1113,1504822629,-0.0010,0.8389,-0.3887,28.35,5.00,14.15
1114,1504827629,-0.0010,0.8306,-0.3887,24.57,4.88,13.66
1115,1504832629,-0.0068,0.8301,-0.4062,18.05,5.12,12.93
1116,1504837628,-0.0171,0.8267,-0.4077,9.82,5.37,12.01
1117,1504842631,-0.0166,0.8301,-0.4131,-0.85,5.73,10.79
1118,1504847629,-0.0190,0.8335,-0.4116,-7.20,5.85,9.94
1119,1504852915,-0.0176,0.8530,-0.4072,-14.45,5.85,8.84
1120,1504857720,-0.0225,0.8608,-0.4023,-17.44,5.91,8.35
1121,1504862629,-0.0249,0.8721,-0.3877,-18.72,5.37,7.93
1122,1504867629,-0.0215,0.8813,-0.3804,-17.74,5.06,7.80
1123,1504872628,-0.0176,0.8833,-0.3647,-14.76,4.39,7.93
1124,1504877629,0.0000,0.8770,-0.3594,-10.49,3.54,8.35
1125,1504882628,0.0078,0.8774,-0.3540,-5.67,2.56,8.78
1126,1504887630,0.0054,0.8716,-0.3398,-1.16,1.59,9.33
1127,1504892629,0.0078,0.8716,-0.3345,2.44,0.98,9.82
1128,1504897629,0.0044,0.8657,-0.3418,4.94,0.18,10.12
1129,1504902628,0.0220,0.8608,-0.3350,6.04,-0.49,10.49
1130,1504907629,0.0264,0.8574,-0.3330,6.22,-0.98,10.61
1131,1504912628,0.0244,0.8501,-0.3423,5.85,-1.22,10.61
1132,1504917629,0.0161,0.8447,-0.3486,5.30,-1.34,10.43
1133,1504922629,0.0181,0.8457,-0.3506,5.30,-1.40,10.18
1134,1504927630,0.0293,0.8481,-0.3564,5.61,-1.46,10.06
1135,1504932628,0.0381,0.8472,-0.3574,6.59,-1.46,9.88
1136,1504937629,0.0410,0.8433,-0.3672,8.05,-1.46,9.88
1137,1504942628,0.0479,0.8433,-0.3765,9.39,-1.83,9.82
1138,1504947629,0.0483,0.8447,-0.3818,10.00,-1.89,9.70
1139,1504952628,0.0415,0.8467,-0.3857,9.15,-1.89,9.51
1140,1504957630,0.0337,0.8457,-0.3901,7.56,-1.89,9.27
1141,1504962628,0.0293,0.8467,-0.3916,4.39,-1.77,9.02
1142,1504967629,0.0312,0.8501,-0.3994,0.61,-1.40,8.96
1143,1504972628,0.0205,0.8604,-0.4199,-3.48,-1.34,8.84
1144,1504977629,0.0020,0.8721,-0.4126,-7.44,-1.16,8.96
1145,1504982627,-0.0107,0.8916,-0.4062,-11.10,-0.79,9.27
1146,1504987629,-0.0024,0.8984,-0.3970,-12.20,-0.55,9.70
1147,1504992629,0.0073,0.9097,-0.3955,-11.83,-0.37,10.37
1148,1504997629,0.0146,0.9023,-0.3853,-9.33,-0.30,11.34
1149,1505002628,0.0156,0.8936,-0.3750,-5.24,-0.49,12.38
1150,1505007629,0.0269,0.8848,-0.3589,0.12,-0.61,13.35
1151,1505012628,0.0444,0.8677,-0.3447,6.04,-0.91,14.45
1152,1505017629,0.0488,0.8589,-0.3379,11.77,-1.28,15.55
1153,1505022629,0.0630,0.8496,-0.3291,17.20,-1.59,16.34
1154,1505027630,0.0723,0.8374,-0.3374,21.89,-2.01,17.20
1155,1505032628,0.0776,0.8354,-0.3418,25.37,-2.38,17.99
1156,1505037629,0.0762,0.8340,-0.3398,27.26,-2.74,18.29
1157,1505042628,0.0688,0.8374,-0.3521,27.93,-2.99,18.41
1158,1505047629,0.0684,0.8374,-0.3511,27.44,-3.11,18.48
1159,1505052629,0.0737,0.8413,-0.3618,25.79,-3.35,18.41
1160,1505057630,0.0698,0.8398,-0.3770,23.23,-3.60,18.17
1161,1505063008,0.0601,0.8369,-0.3760,18.60,-3.78,17.80
1162,1505067629,0.0581,0.8335,-0.3789,14.88,-3.72,17.50
1163,1505072628,0.0620,0.8359,-0.3789,9.88,-3.84,17.01
1164,1505077629,0.0620,0.8379,-0.3687,5.00,-3.84,16.52
1165,1505082629,0.0635,0.8379,-0.3784,0.79,-3.84,16.34
1166,1505087629,0.0669,0.8359,-0.3721,-2.50,-3.96,16.10
1167,1505092628,0.0688,0.8379,-0.3784,-4.82,-4.39,16.04
1168,1505097630,0.0635,0.8398,-0.3774,-6.04,-4.82,16.10
1169,1505102628,0.0483,0.8481,-0.3857,-6.59,-5.24,16.28
1170,1505107629,0.0439,0.8608,-0.3867,-6.52,-5.79,16.52
1171,1505112629,0.0391,0.8730,-0.3857,-5.91,-6.34,16.83
1172,1505117629,0.0420,0.8774,-0.3838,-4.94,-7.07,17.38
1173,1505122630,0.0327,0.8804,-0.3838,-3.72,-7.62,17.68
1174,1505127629,0.0200,0.8823,-0.3804,-2.13,-8.17,17.93
1175,1505132628,0.0190,0.8853,-0.3770,-0.12,-8.72,18.23
1176,1505137630,0.0264,0.8789,-0.3691,2.62,-9.15,18.41
1177,1505142629,0.0381,0.8643,-0.3687,5.91,-9.63,18.78
1178,1505147629,0.0474,0.8613,-0.3506,9.76,-10.18,18.90
1179,1505152628,0.0962,0.8330,-0.3389,13.96,-10.61,19.15
1180,1505157630,0.0933,0.8345,-0.3564,18.41,-11.10,19.15
1181,1505162628,0.0444,0.7964,-0.3247,22.32,-11.52,19.15
1182,1505167630,0.0098,0.8291,-0.3496,25.91,-12.32,19.15
1183,1505172629,0.0874,0.8320,-0.3730,28.66,-13.11,19.15
1184,1505177629,0.0957,0.8364,-0.3643,30.06,-13.90,19.15
1185,1505182628,0.0693,0.8521,-0.3574,29.51,-14.63,19.09
1186,1505187629,0.0610,0.8555,-0.3760,26.83,-15.24,18.72
1187,1505192628,0.0562,0.8525,-0.3887,22.44,-15.79,18.35
1188,1505197631,0.0352,0.8501,-0.3867,16.59,-16.22,17.99
1189,1505202630,0.0239,0.8457,-0.3813,9.76,-16.59,17.50
1190,1505207629,0.0205,0.8525,-0.3950,2.56,-16.95,17.01
1191,1505212628,0.0132,0.8486,-0.3999,-4.45,-17.20,16.46
1192,1505217629,0.0068,0.8481,-0.3872,-10.55,-17.50,16.10
1193,1505222628,0.0068,0.8501,-0.3853,-15.61,-17.80,15.79
1194,1505227629,0.0098,0.8521,-0.3726,-18.96,-18.23,15.67
1195,1505232629,0.0356,0.8511,-0.3574,-20.61,-18.66,15.61
1196,1505237630,0.0552,0.8389,-0.3364,-20.30,-19.15,15.67
1197,1505242954,0.0845,0.8213,-0.3379,-17.68,-19.57,15.85
1198,1505247630,0.0591,0.8237,-0.3325,-14.82,-20.12,15.91
1199,1505252627,0.0444,0.8203,-0.3076,-10.55,-20.61,16.16
1200,1505257631,0.0513,0.8115,-0.3071,-5.49,-21.28,16.40
1201,1505262982,0.0605,0.8140,-0.3179,1.22,-22.20,16.95
1202,1505267629,0.0527,0.8218,-0.3203,5.67,-22.80,17.26
1203,1505272629,0.0435,0.8306,-0.3081,10.67,-23.78,17.93
1204,1505277629,0.0269,0.8354,-0.3110,14.88,-24.70,18.72
1205,1505282629,0.0156,0.8379,-0.3223,18.48,-25.67,19.45
1206,1505287627,0.0122,0.8398,-0.3296,21.04,-27.01,20.37
1207,1505292629,0.0088,0.8545,-0.3359,22.87,-28.23,21.34
1208,1505297628,0.0078,0.8638,-0.3506,24.02,-29.45,22.56
1209,1505302629,0.0000,0.8779,-0.3657,24.39,-31.04,23.72
1210,1505307627,-0.0190,0.8892,-0.3657,23.96,-32.56,25.06
1211,1505312629,-0.0420,0.9106,-0.3730,22.93,-33.96,26.52
1212,1505317628,-0.0474,0.9307,-0.3818,21.10,-35.49,28.05
1213,1505322630,-0.0444,0.9463,-0.3853,18.66,-36.83,29.76
1214,1505327627,-0.0371,0.9453,-0.3911,15.91,-38.11,31.40
1215,1505332629,-0.0288,0.9331,-0.3970,13.05,-39.88,33.17
1216,1505337629,-0.0312,0.9204,-0.4058,10.06,-41.28,34.82
1217,1505342627,-0.0420,0.9204,-0.4048,7.07,-42.80,36.46
1218,1505347629,-0.0488,0.9248,-0.4004,4.33,-44.39,37.93
1219,1505352628,-0.0498,0.9253,-0.3911,2.07,-45.85,39.39
1220,1505357629,-0.0459,0.9175,-0.3794,0.18,-47.07,40.55
1221,1505362629,-0.0532,0.9106,-0.3667,-1.16,-48.41,41.83
1222,1505367629,-0.0557,0.8999,-0.3687,-1.95,-49.70,43.05
1223,1505372628,-0.0674,0.8818,-0.3672,-2.01,-50.98,44.51
1224,1505377629,-0.0776,0.8770,-0.3574,-1.40,-52.32,46.16
