# skilleye imu stream v1
# device=xiao_esp32c6 imu=mpu6050 addr=0x68
# rate_hz=200 accel_range_g=16 gyro_range_dps=2000 dlpf_hz=94
# units: accel in g, gyro in deg/s, t_us in microseconds since boot (monotonic)
# no shared clock with the camera -- tap the racket once before each take
# so both recordings share a spike to align on
seq,t_us,ax,ay,az,gx,gy,gz
0,1270197853,0.6265,1.0239,0.3398,36.59,-16.22,-26.16
1,1270202632,0.6709,1.1147,0.3481,41.22,-17.13,-24.82
2,1270207628,0.7148,1.2046,0.3496,43.48,-17.68,-23.29
3,1270212645,0.7661,1.2871,0.3438,43.17,-17.80,-21.59
4,1270217629,0.8228,1.3799,0.3228,40.55,-17.87,-19.63
5,1270222631,0.8774,1.4678,0.3076,36.22,-17.26,-17.44
6,1270227628,0.9214,1.5400,0.2842,30.18,-16.52,-14.94
7,1270232630,0.9678,1.6040,0.2808,22.99,-15.43,-12.01
8,1270237628,1.0137,1.6499,0.2666,15.30,-14.21,-8.78
9,1270242629,1.0444,1.6772,0.2700,7.56,-12.80,-5.24
10,1270247629,1.0747,1.6812,0.2832,0.06,-11.10,-1.71
11,1270252630,1.0723,1.6514,0.3091,-7.20,-9.27,1.83
12,1270257629,1.0557,1.6167,0.3394,-14.33,-7.93,5.18
13,1270262627,1.0352,1.5654,0.3726,-21.10,-6.46,8.41
14,1270267627,1.0024,1.5234,0.3833,-26.65,-5.37,11.16
15,1270272629,0.9707,1.4653,0.4053,-30.79,-4.51,13.90
16,1270277629,0.9395,1.4077,0.4097,-32.50,-3.72,16.40
17,1270282629,0.9238,1.3481,0.4185,-31.95,-3.11,18.60
18,1270287629,0.8872,1.2764,0.4351,-29.21,-2.32,20.61
19,1270292629,0.8423,1.2144,0.4434,-25.30,-1.71,22.20
20,1270297628,0.7993,1.1479,0.4561,-20.98,-0.91,23.35
21,1270302631,0.7490,1.0811,0.4629,-17.20,-0.30,24.15
22,1270307628,0.6924,1.0015,0.4688,-14.45,0.30,24.70
23,1270312629,0.6104,0.9268,0.4790,-13.17,0.73,25.00
24,1270317628,0.5361,0.8589,0.4897,-13.41,1.10,25.30
25,1270322896,0.4771,0.7979,0.5044,-14.88,1.28,25.61
26,1270327629,0.4146,0.7578,0.5068,-16.71,1.16,26.10
27,1270332629,0.3701,0.7329,0.5039,-18.48,1.04,26.52
28,1270337628,0.3403,0.7065,0.4932,-19.70,0.67,27.13
29,1270342722,0.3325,0.6807,0.4746,-19.94,0.37,28.05
30,1270347629,0.3174,0.6655,0.4580,-19.33,-0.43,29.15
31,1270352629,0.3179,0.6323,0.4375,-17.87,-1.16,30.55
32,1270357630,0.3164,0.5986,0.4165,-16.28,-1.89,31.89
33,1270362627,0.3301,0.5610,0.4160,-14.76,-2.80,32.93
34,1270367629,0.3418,0.5088,0.4126,-13.66,-3.84,33.72
35,1270372629,0.3398,0.4575,0.4146,-12.99,-4.88,34.02
36,1270377629,0.3369,0.4111,0.4077,-12.99,-5.98,33.72
37,1270382629,0.3413,0.3652,0.4033,-13.66,-7.20,33.11
38,1270387629,0.3340,0.3315,0.3823,-14.33,-8.35,32.13
39,1270392629,0.3301,0.3037,0.3843,-14.82,-9.33,30.91
40,1270397629,0.3237,0.2705,0.3862,-14.88,-10.24,29.51
41,1270402629,0.3203,0.2402,0.3779,-14.82,-10.85,27.80
42,1270407629,0.3291,0.2158,0.3901,-15.12,-11.40,25.91
43,1270412627,0.3301,0.1997,0.3833,-16.16,-11.77,23.66
44,1270417748,0.3213,0.1997,0.3682,-17.93,-11.95,21.46
45,1270422629,0.3335,0.1929,0.3535,-20.18,-11.83,18.90
46,1270427629,0.3408,0.1899,0.3350,-22.26,-11.52,16.46
47,1270432629,0.3315,0.1865,0.3291,-23.72,-11.04,13.84
48,1270437628,0.3218,0.1787,0.3291,-24.45,-10.43,11.22
49,1270442629,0.3110,0.1816,0.3203,-24.70,-9.94,8.60
50,1270447629,0.3057,0.1860,0.3281,-24.15,-9.39,5.73
51,1270452629,0.3096,0.1880,0.3301,-22.87,-9.09,2.87
52,1270457628,0.3184,0.2124,0.3276,-20.73,-8.84,0.00
53,1270462629,0.3472,0.2471,0.3257,-18.05,-8.72,-2.87
54,1270467629,0.3789,0.3037,0.3018,-14.82,-8.54,-5.55
55,1270472629,0.4141,0.3652,0.2798,-11.40,-8.23,-8.17
56,1270477629,0.4624,0.4292,0.2495,-7.56,-8.05,-10.43
57,1270482627,0.5186,0.5039,0.2285,-3.60,-7.87,-12.38
58,1270487630,0.5723,0.5840,0.2148,0.98,-7.62,-14.02
59,1270492629,0.6299,0.6714,0.2041,6.10,-7.26,-15.30
60,1270497629,0.6904,0.7681,0.2124,11.65,-6.95,-16.16
61,1270502629,0.7466,0.8696,0.2129,17.07,-6.34,-16.77
62,1270507628,0.7842,0.9561,0.2100,22.32,-5.55,-17.13
63,1270512629,0.8062,1.0371,0.2056,26.59,-4.70,-17.07
64,1270517629,0.8198,1.1147,0.2026,29.51,-3.35,-16.52
65,1270522637,0.8394,1.1792,0.2070,31.04,-1.71,-15.61
66,1270527628,0.8535,1.2368,0.2036,30.55,0.06,-14.51
67,1270532629,0.8477,1.2720,0.2070,28.41,2.07,-13.17
68,1270537628,0.8364,1.3027,0.2017,24.82,4.21,-11.40
69,1270542629,0.8271,1.3325,0.2031,20.43,6.46,-9.63
70,1270547629,0.8389,1.3452,0.2217,15.55,8.35,-7.80
71,1270552627,0.8540,1.3545,0.2310,10.49,10.49,-6.10
72,1270557629,0.8604,1.3481,0.2368,5.61,12.26,-4.39
73,1270562631,0.8584,1.3457,0.2510,1.22,13.90,-2.99
74,1270567628,0.8540,1.3252,0.2520,-1.95,15.37,-1.71
75,1270572627,0.8408,1.3052,0.2661,-3.84,16.77,-0.24
76,1270577627,0.8135,1.2812,0.2568,-4.76,18.11,0.79
77,1270582727,0.7817,1.2490,0.2773,-4.51,19.21,1.52
78,1270587629,0.7827,1.2144,0.2881,-3.54,20.18,2.07
79,1270592628,0.7905,1.1914,0.3032,-2.13,21.10,2.50
80,1270597629,0.7866,1.1621,0.3105,-1.16,21.83,2.56
81,1270602629,0.7900,1.1357,0.3184,-0.49,21.95,2.62
82,1270607628,0.7886,1.1050,0.3203,-0.12,21.95,2.44
83,1270612629,0.7900,1.0654,0.3408,0.67,21.83,2.44
84,1270617628,0.7720,1.0034,0.3662,2.26,21.59,2.56
85,1270622630,0.7476,0.9971,0.3159,3.29,21.52,2.56
86,1270627628,0.7241,0.9614,0.3413,3.35,21.59,2.32
87,1270632627,0.6802,0.8848,0.3530,3.17,21.40,2.13
88,1270637631,0.6348,0.8457,0.3174,3.48,20.73,2.01
89,1270642628,0.5771,0.8491,0.3853,4.94,20.12,2.01
90,1270647627,0.5645,0.7983,0.3442,7.07,19.15,1.83
91,1270652764,0.5518,0.7593,0.3257,9.51,17.56,1.89
92,1270657628,0.5718,0.6201,0.3872,14.94,15.30,2.44
93,1270662627,0.5723,0.6011,0.2974,25.98,12.01,3.90
94,1270667643,0.5908,0.6812,0.4482,38.60,10.37,4.76
95,1270672688,0.5781,0.7261,0.3628,47.44,10.61,4.21
96,1270677629,0.5820,0.6616,0.2524,51.52,10.37,3.11
97,1270682628,0.5908,0.5947,0.2969,51.46,9.63,2.07
98,1270687627,0.5322,0.5454,0.3389,48.41,9.21,0.98
99,1270692631,0.4678,0.5273,0.3086,44.27,8.72,-0.12
100,1270697629,0.4331,0.6138,0.2983,39.39,8.05,-1.77
101,1270702629,0.4268,0.5630,0.3174,33.72,7.13,-4.27
102,1270707758,0.3872,0.5171,0.3169,27.87,6.04,-6.28
103,1270712627,0.3555,0.4995,0.3242,23.54,5.00,-7.93
104,1270717627,0.3711,0.4878,0.3511,21.71,3.90,-9.09
105,1270722628,0.3794,0.5024,0.3770,22.20,3.05,-9.88
106,1270727695,0.3721,0.5220,0.3750,23.84,2.74,-10.49
107,1270732628,0.3687,0.5166,0.3418,25.43,2.68,-11.10
108,1270737629,0.4185,0.5000,0.3198,25.85,2.68,-11.40
109,1270743114,0.4287,0.5039,0.3423,24.09,2.99,-11.46
110,1270747630,0.4126,0.5068,0.3496,19.82,3.05,-11.52
111,1270752627,0.3594,0.5146,0.3574,14.02,3.35,-11.83
112,1270757629,0.3169,0.5249,0.3379,8.05,3.78,-12.26
113,1270762630,0.3789,0.5361,0.3086,3.54,4.51,-12.44
114,1270767627,0.4033,0.5654,0.3203,1.22,5.43,-12.20
115,1270772627,0.3638,0.5967,0.3452,0.79,6.46,-11.71
116,1270777627,0.3208,0.6143,0.3374,2.26,7.26,-10.79
117,1270782627,0.2974,0.6309,0.3315,5.18,8.17,-9.88
118,1270787628,0.3169,0.6343,0.3384,9.33,8.66,-9.02
119,1270792628,0.3750,0.6255,0.3418,14.33,8.78,-7.93
120,1270797627,0.3931,0.6431,0.3584,19.94,8.66,-6.77
121,1270802627,0.3667,0.6699,0.3672,25.85,8.23,-5.30
122,1270807627,0.3540,0.6929,0.3525,32.20,7.68,-3.72
123,1270812629,0.3730,0.7324,0.3477,38.72,7.07,-2.26
124,1270817631,0.3931,0.7700,0.3496,44.57,6.65,-1.16
125,1270822628,0.4146,0.7871,0.3418,49.09,6.22,-0.12
126,1270827630,0.4331,0.8091,0.3398,51.83,5.91,0.67
127,1270832628,0.4438,0.8374,0.3276,52.99,5.55,1.34
128,1270837630,0.4648,0.8618,0.3276,52.56,5.49,1.71
129,1270842629,0.4814,0.8896,0.3188,51.28,5.06,2.07
130,1270847627,0.5190,0.9019,0.3218,49.57,4.82,2.38
131,1270852654,0.5317,0.9116,0.3203,47.93,4.15,2.62
132,1270857628,0.5801,0.8589,0.3516,47.74,3.54,3.17
133,1270862629,0.6304,0.8740,0.3223,49.15,2.62,4.51
134,1270867629,0.6406,1.0020,0.3257,51.40,1.95,4.63
135,1270872629,0.6401,0.9390,0.3262,53.90,0.98,4.21
136,1270877627,0.6523,0.9224,0.3350,55.98,0.12,3.96
137,1270882629,0.6377,0.9346,0.3359,57.13,-0.79,3.54
138,1270887629,0.6235,0.9390,0.3091,57.26,-2.01,2.99
139,1270892629,0.6553,0.9487,0.3115,56.83,-3.17,2.44
140,1270897627,0.6558,0.9678,0.3081,56.04,-4.15,1.59
141,1270902627,0.6406,0.9746,0.2935,55.55,-5.37,0.61
142,1270907629,0.6187,0.9722,0.2798,55.12,-6.46,-0.73
143,1270912630,0.6177,0.9878,0.2612,55.06,-7.56,-2.20
144,1270917629,0.6382,1.0059,0.2617,55.24,-8.66,-4.02
145,1270922629,0.6938,1.0454,0.3394,56.34,-9.02,-6.28
146,1270927629,0.6621,1.0376,0.2207,58.78,-9.27,-8.72
147,1270932629,0.6616,1.0303,0.2100,61.04,-9.70,-11.04
148,1270937627,0.6777,1.0117,0.2236,62.44,-10.61,-12.93
149,1270942629,0.7065,1.0283,0.2295,62.62,-11.65,-14.76
150,1270948067,0.7163,1.0391,0.2080,62.01,-12.87,-16.10
151,1270952629,0.7090,1.0371,0.2012,59.94,-14.09,-17.07
152,1270957627,0.7026,1.0366,0.1855,57.01,-15.12,-17.80
153,1270962629,0.7056,1.0400,0.1631,53.05,-16.04,-18.17
154,1270967631,0.6934,1.0425,0.1431,49.33,-16.65,-18.23
155,1270972628,0.6865,1.0532,0.1279,45.79,-16.52,-17.87
156,1270977631,0.6792,1.0557,0.1206,42.80,-15.85,-17.32
157,1270982631,0.6836,1.0635,0.1187,40.30,-15.00,-16.65
158,1270987627,0.6851,1.0601,0.0996,38.11,-13.90,-15.85
159,1270992627,0.6772,1.0513,0.1025,36.04,-12.68,-14.88
160,1270997627,0.6699,1.0332,0.1196,33.84,-11.16,-13.78
161,1271002627,0.6611,1.0210,0.1313,31.34,-9.57,-12.38
162,1271007627,0.6431,1.0137,0.1465,28.66,-7.93,-10.91
163,1271012733,0.6260,1.0112,0.1509,25.30,-6.16,-9.27
164,1271017629,0.6074,1.0103,0.1523,21.10,-4.27,-7.74
165,1271022711,0.6138,1.0176,0.1646,16.04,-2.13,-6.10
166,1271027629,0.6235,1.0063,0.1812,9.94,-0.18,-4.33
167,1271032628,0.6245,0.9897,0.1885,2.80,1.77,-2.56
168,1271037627,0.6138,0.9663,0.1880,-5.18,3.84,-0.67
169,1271042631,0.6040,0.9512,0.1816,-13.41,5.98,1.04
170,1271047629,0.5928,0.9292,0.1807,-21.40,8.17,2.68
171,1271052629,0.5801,0.9077,0.1890,-28.66,10.24,4.45
172,1271057629,0.5581,0.8896,0.1895,-34.57,11.83,6.04
173,1271062629,0.5342,0.8677,0.2012,-39.21,12.62,7.93
174,1271067627,0.5073,0.8662,0.2197,-42.20,12.68,9.45
175,1271072629,0.4663,0.8677,0.2515,-43.17,11.89,10.67
176,1271077627,0.4253,0.8789,0.2778,-42.07,10.37,11.22
177,1271082629,0.3896,0.8877,0.3311,-38.41,7.93,10.98
178,1271087695,0.3843,0.8423,0.4243,-32.62,5.30,10.30
179,1271092629,0.4224,0.8198,0.4287,-25.43,3.23,9.27
180,1271097629,0.4502,0.7661,0.3945,-17.74,1.65,8.54
181,1271102627,0.4570,0.7383,0.3433,-10.98,0.61,8.48
182,1271107627,0.4702,0.7158,0.2803,-5.12,0.61,8.48
183,1271112627,0.4873,0.6660,0.2529,-0.67,0.67,9.15
184,1271117627,0.5098,0.6318,0.2402,2.07,0.67,10.43
185,1271122629,0.5166,0.6396,0.2256,2.87,0.55,12.26
186,1271127629,0.4907,0.6724,0.2314,1.28,0.00,13.66
187,1271132628,0.4678,0.6699,0.2373,-2.56,-0.79,14.45
188,1271137627,0.4673,0.6416,0.2573,-7.87,-2.26,14.70
189,1271142629,0.4727,0.6143,0.2856,-13.54,-4.21,15.00
190,1271147804,0.4644,0.6113,0.3013,-18.17,-6.34,15.18
191,1271152629,0.4395,0.6143,0.2900,-21.10,-8.60,15.49
192,1271157629,0.4170,0.6240,0.2764,-22.01,-10.24,15.85
193,1271162629,0.4038,0.6338,0.2676,-21.40,-11.46,16.22
194,1271167629,0.4155,0.6460,0.2637,-20.30,-12.38,16.77
195,1271172629,0.4243,0.6621,0.2563,-19.09,-13.41,17.20
196,1271177629,0.4082,0.6758,0.2456,-18.35,-14.02,17.93
197,1271182627,0.3896,0.7100,0.2388,-17.62,-14.82,18.54
198,1271187627,0.3770,0.7441,0.2363,-17.07,-15.67,19.21
199,1271192627,0.3931,0.7681,0.2466,-16.16,-16.65,20.00
200,1271197631,0.4111,0.7832,0.2607,-14.33,-17.74,20.91
201,1271202627,0.4263,0.8081,0.2690,-11.71,-18.72,22.07
202,1271207630,0.4360,0.8291,0.2739,-8.54,-19.45,23.35
203,1271212628,0.4600,0.8481,0.2598,-5.61,-20.12,24.39
204,1271217627,0.5039,0.8623,0.2500,-3.72,-20.98,25.18
205,1271222629,0.5400,0.8779,0.2480,-3.11,-21.34,25.37
206,1271227629,0.5635,0.8872,0.2378,-4.27,-21.77,25.24
207,1271232628,0.5586,0.8911,0.2246,-6.95,-21.83,24.63
208,1271237630,0.5547,0.9004,0.2163,-10.91,-21.77,24.02
209,1271242628,0.5688,0.9082,0.2095,-15.30,-21.65,23.11
210,1271247629,0.5693,0.9272,0.2158,-19.51,-21.52,22.20
211,1271252629,0.5742,0.9404,0.2217,-22.93,-21.40,21.34
212,1271257629,0.5801,0.9595,0.2266,-25.06,-21.04,20.55
213,1271262628,0.5981,0.9668,0.2358,-25.73,-20.85,19.51
214,1271267629,0.6309,0.9736,0.2349,-24.88,-20.79,18.29
215,1271272697,0.6831,0.9785,0.2520,-22.20,-20.91,16.77
216,1271277627,0.7271,0.9727,0.2749,-17.99,-20.79,14.88
217,1271282627,0.7388,0.9487,0.2798,-12.87,-20.85,12.44
218,1271287627,0.7466,0.9238,0.2866,-7.38,-20.85,10.12
219,1271292627,0.7686,0.9106,0.2915,-2.07,-20.98,7.38
220,1271297627,0.7925,0.9077,0.3169,2.56,-21.04,4.33
221,1271302627,0.8130,0.9019,0.3359,6.34,-21.10,1.16
222,1271307627,0.8262,0.9004,0.3535,8.84,-21.28,-2.07
223,1271312627,0.8228,0.9077,0.3486,9.88,-21.22,-5.00
224,1271317627,0.8096,0.9326,0.3491,9.02,-21.22,-7.50
225,1271322627,0.7808,0.9570,0.3638,6.40,-21.16,-9.45
226,1271327772,0.7710,0.9810,0.3311,4.09,-21.16,-10.91
227,1271332630,0.6880,0.9526,0.4526,1.40,-20.85,-11.71
228,1271337629,0.7217,0.9502,0.3784,-3.17,-20.43,-12.13
229,1271342627,0.6279,1.0146,0.4736,-5.85,-20.85,-12.13
230,1271347629,0.6704,1.0977,0.5923,-2.50,-20.00,-11.28
231,1271352629,0.6943,1.1050,0.3589,4.33,-20.79,-9.57
232,1271357629,0.6665,1.0947,0.4067,13.23,-21.83,-7.32
233,1271362629,0.6831,1.1113,0.4561,23.66,-22.32,-4.63
234,1271367629,0.6987,1.1763,0.3779,35.43,-23.11,-1.65
235,1271372630,0.6860,1.2314,0.3696,46.83,-24.02,2.07
236,1271377629,0.6934,1.2871,0.3481,56.46,-24.76,6.65
237,1271382627,0.7085,1.3125,0.3052,63.11,-25.37,11.83
238,1271387627,0.6909,1.3428,0.2690,66.04,-25.98,17.62
239,1271392627,0.6904,1.3809,0.2998,64.27,-26.89,23.78
240,1271397629,0.6602,1.3809,0.3364,57.26,-27.62,30.06
241,1271402628,0.5459,1.4150,0.3433,46.95,-28.41,36.46
242,1271407627,0.5713,1.4204,0.3091,34.45,-29.27,43.48
243,1271412629,0.5601,1.4526,0.1602,22.50,-29.94,50.85
244,1271417627,0.5728,1.4580,0.1245,13.11,-30.43,58.84
245,1271422629,0.3608,1.5781,0.3403,4.02,-30.12,66.95
246,1271427630,0.4312,1.5464,0.4497,-8.23,-29.76,74.63
247,1271432629,0.4209,1.4478,0.2080,-20.61,-31.04,81.77
248,1271437629,0.4224,1.3945,0.3457,-30.30,-32.62,88.41
249,1271442629,0.4404,1.3652,0.4521,-35.98,-32.74,95.06
250,1271447629,0.4834,1.3662,0.2847,-37.20,-33.60,101.34
251,1271452630,0.5259,1.3843,0.2915,-34.82,-34.82,107.07
252,1271457629,0.5688,1.3691,0.3667,-29.21,-35.12,112.62
253,1271462638,0.5947,1.3271,0.2710,-21.71,-35.73,117.80
254,1271467629,0.6250,1.3008,0.2510,-13.54,-36.77,122.50
255,1271472628,0.6631,1.2720,0.3027,-6.34,-37.13,126.59
256,1271477629,0.6948,1.2354,0.2539,-0.37,-37.80,130.30
257,1271482628,0.7290,1.2026,0.2236,3.84,-38.96,133.35
258,1271487631,0.7539,1.1602,0.2539,5.91,-39.82,135.91
259,1271492628,0.7808,1.1064,0.2300,4.63,-40.79,137.93
260,1271497629,0.7822,1.0527,0.1860,0.12,-42.32,139.45
261,1271502663,0.7656,1.0039,0.1802,-7.26,-44.02,140.55
262,1271507628,0.7896,0.9619,0.1670,-15.37,-45.79,141.22
263,1271512627,0.8096,0.9189,0.1406,-22.13,-47.68,141.52
264,1271517807,0.7856,0.8848,0.1265,-26.16,-49.45,141.65
265,1271522629,0.7749,0.8618,0.1055,-26.83,-50.98,141.77
266,1271527628,0.8018,0.8276,0.0771,-24.02,-52.38,141.71
267,1271532629,0.8159,0.7983,0.0586,-17.99,-53.60,141.59
268,1271537629,0.8169,0.7871,0.0400,-9.57,-54.51,141.59
269,1271542630,0.8247,0.7456,0.0024,0.61,-55.18,141.40
270,1271547629,0.8184,0.7275,-0.0225,12.07,-55.49,141.34
271,1271552627,0.8335,0.7153,-0.0420,23.90,-55.12,140.91
272,1271557629,0.8174,0.6748,-0.0811,33.72,-54.51,140.24
273,1271562628,0.7651,0.6143,-0.1235,39.76,-53.35,139.76
274,1271567628,0.7168,0.5664,-0.1685,42.13,-51.95,139.27
275,1271572629,0.6831,0.5293,-0.1963,42.62,-50.06,138.78
276,1271577629,0.6445,0.4844,-0.2163,42.32,-47.62,137.87
277,1271582629,0.5908,0.4229,-0.2471,40.98,-44.88,136.95
278,1271587629,0.5391,0.3608,-0.2847,38.48,-41.46,135.79
279,1271592629,0.5156,0.2979,-0.3120,36.16,-37.93,134.33
280,1271597629,0.4990,0.2295,-0.3262,35.06,-33.90,132.56
281,1271602629,0.4644,0.1714,-0.3477,35.61,-29.63,130.30
282,1271607628,0.4380,0.0864,-0.3726,37.38,-25.00,127.68
283,1271612629,0.3750,0.0327,-0.3618,40.37,-20.00,124.51
284,1271617628,0.3647,-0.0474,-0.3643,43.60,-14.39,120.79
285,1271622629,0.3555,-0.1333,-0.3882,46.52,-8.90,116.46
286,1271627629,0.3262,-0.2246,-0.3970,48.90,-3.23,111.52
287,1271632629,0.3013,-0.3164,-0.3965,51.04,2.44,106.16
288,1271637628,0.2744,-0.4072,-0.3940,53.35,8.17,100.12
289,1271642631,0.2607,-0.5005,-0.3892,56.77,13.72,93.29
290,1271647628,0.2793,-0.5479,-0.3921,61.59,19.15,85.24
291,1271652693,0.3096,-0.6069,-0.3760,67.20,24.82,76.34
292,1271657854,0.2866,-0.6680,-0.4150,71.59,30.67,66.65
293,1271662629,0.2236,-0.7451,-0.3276,73.35,44.39,56.40
294,1271667629,0.2354,-0.7920,-0.2861,74.15,41.34,45.55
295,1271672628,0.2471,-0.8203,-0.3428,73.23,45.55,34.09
296,1271677628,0.2388,-0.8447,-0.3452,71.04,49.76,21.89
297,1271682745,0.2236,-0.9009,-0.2627,67.44,54.33,9.57
298,1271687690,0.1978,-0.9272,-0.2725,62.56,58.72,-2.93
299,1271692628,0.1763,-0.9619,-0.2656,57.26,62.50,-15.79
300,1271697629,0.1592,-0.9736,-0.1934,52.56,66.34,-28.72
301,1271702927,0.1636,-0.9976,-0.1528,49.09,70.18,-42.01
302,1271707629,0.1685,-1.0215,-0.1377,47.13,73.35,-55.43
303,1271712629,0.1807,-1.0454,-0.0815,46.89,76.28,-69.15
304,1271717629,0.2017,-1.0737,-0.0381,48.48,78.78,-83.11
305,1271722627,0.2393,-1.1021,-0.0171,51.95,80.55,-97.38
306,1271727628,0.2891,-1.0933,0.0264,57.99,81.52,-112.13
307,1271732629,0.3442,-1.0728,0.1099,66.10,81.95,-127.62
308,1271737628,0.4131,-1.0410,0.1533,74.57,81.77,-144.02
309,1271742629,0.4849,-1.0190,0.2012,80.49,80.98,-161.10
310,1271747629,0.5322,-0.9624,0.2432,81.95,79.27,-178.35
311,1271752629,0.6108,-0.8687,0.2739,78.35,76.77,-195.98
312,1271757630,0.6758,-0.7651,0.3110,70.24,73.66,-213.54
313,1271762629,0.6929,-0.6450,0.3335,58.54,69.88,-230.49
314,1271767629,0.6870,-0.4849,0.3350,44.82,66.10,-246.40
315,1271772630,0.7231,-0.2676,0.3281,31.59,62.07,-260.91
316,1271777628,0.7085,-0.0801,0.3389,21.40,58.11,-273.29
317,1271782628,0.5679,0.1011,0.3477,15.67,54.63,-282.62
318,1271787629,0.4272,0.3105,0.3252,14.15,51.71,-288.60
319,1271792628,0.3164,0.5332,0.3169,17.74,48.78,-291.16
320,1271797629,1.3179,5.4316,1.7534,24.02,46.71,-287.56
321,1271802628,2.4292,6.9766,0.9146,-155.24,26.52,-210.30
322,1271807629,0.2026,3.4438,1.5889,-166.28,4.21,-124.82
323,1271812627,1.0205,3.7246,4.1938,-106.16,21.77,-78.96
324,1271817629,1.4937,4.7637,-0.4077,-44.82,17.13,-41.40
325,1271822629,0.8091,3.6519,-0.4146,-3.66,-2.07,-16.59
326,1271827629,0.6772,1.9458,2.0469,31.89,0.00,0.30
327,1271832628,0.7637,0.9287,0.2593,67.80,0.79,12.62
328,1271837629,0.7432,1.0767,-0.5117,99.27,-8.48,22.13
329,1271842629,0.6621,1.5991,0.9463,121.89,-8.41,29.94
330,1271847629,0.7324,1.6855,0.4561,129.45,-7.26,36.59
331,1271852628,0.7964,1.5078,-0.2231,123.05,-13.66,42.93
332,1271857627,0.7656,1.3423,0.6069,105.37,-15.98,49.02
333,1271862627,0.7822,1.2134,0.5879,79.33,-16.04,54.45
334,1271867627,0.8574,1.2803,-0.0005,48.60,-20.49,59.39
335,1271872629,0.8877,1.4492,0.3511,17.44,-24.27,63.66
336,1271877629,0.8696,1.4653,0.5117,-10.73,-25.49,68.11
337,1271882627,0.8325,1.4204,0.1367,-33.17,-28.41,73.17
338,1271887629,0.7788,1.4482,0.2188,-48.66,-31.34,79.09
339,1271892901,0.7344,1.4634,0.3560,-57.01,-32.32,85.61
340,1271897631,0.6875,1.4375,0.1167,-58.05,-34.02,92.32
341,1271902629,0.6460,1.4321,0.0928,-51.65,-35.85,99.57
342,1271907629,0.6455,1.3633,0.2153,-38.48,-36.52,106.89
343,1271912629,0.6484,1.2554,0.1216,-21.34,-36.95,113.96
344,1271917629,0.6445,1.1362,0.0664,-3.41,-37.80,120.43
345,1271922629,0.6362,1.0156,0.1343,11.77,-37.93,126.10
346,1271927628,0.6294,0.8716,0.0850,22.80,-38.11,130.61
347,1271932629,0.6392,0.7158,0.0308,29.82,-38.96,133.84
348,1271937628,0.6499,0.5537,0.0508,34.70,-39.63,135.85
349,1271942629,0.6616,0.4043,0.0444,39.45,-40.24,136.34
350,1271947629,0.6646,0.2446,-0.0093,45.24,-41.16,135.61
351,1271952630,0.6626,0.0933,-0.0137,52.32,-41.65,133.23
352,1271957629,0.6958,-0.0151,-0.0127,60.49,-41.65,129.02
353,1271962629,0.7329,-0.1274,-0.0479,68.41,-41.65,123.48
354,1271967628,0.6831,-0.2422,-0.0571,73.96,-41.28,116.71
355,1271972627,0.6211,-0.3525,-0.0688,75.85,-40.91,109.33
356,1271977627,0.5894,-0.4531,-0.0942,73.90,-40.49,101.22
357,1271982627,0.5527,-0.5332,-0.1040,69.39,-40.18,92.44
358,1271987627,0.4961,-0.6094,-0.0771,63.41,-39.45,82.80
359,1271992629,0.4189,-0.6821,-0.0591,57.07,-38.48,72.62
360,1271997628,0.3662,-0.7705,-0.0464,50.67,-37.38,61.65
361,1272002627,0.3452,-0.8545,-0.0186,44.88,-36.16,50.18
362,1272007627,0.3296,-0.9238,0.0166,40.55,-34.76,37.80
363,1272012629,0.3140,-0.9946,0.0415,37.93,-33.48,24.51
364,1272017629,0.2905,-1.0552,0.0811,36.95,-32.01,10.49
365,1272022627,0.2729,-1.1079,0.1191,36.59,-30.73,-4.02
366,1272027629,0.2637,-1.1479,0.1416,36.95,-29.94,-19.15
367,1272032629,0.2593,-1.1753,0.1616,37.68,-29.39,-34.94
368,1272037629,0.2539,-1.2041,0.1812,37.68,-28.96,-51.16
369,1272042629,0.2461,-1.2300,0.1846,36.59,-28.84,-67.74
370,1272047628,0.2651,-1.2212,0.1616,34.51,-29.02,-84.82
371,1272052629,0.3320,-1.1636,0.1416,32.56,-29.57,-102.50
372,1272057629,0.3525,-1.0918,0.1226,31.71,-30.00,-120.49
373,1272062627,0.3252,-1.0029,0.0903,32.38,-30.30,-138.23
374,1272067629,0.2871,-0.8833,0.0605,33.54,-30.55,-154.88
375,1272072627,0.2612,-0.7432,0.0146,33.48,-30.49,-170.49
376,1272077629,0.2441,-0.5503,-0.0420,30.85,-30.18,-187.07
377,1272082629,0.2593,-0.3975,-0.0820,27.62,-29.94,-196.95
378,1272087629,0.2671,-0.2109,-0.1245,22.99,-29.15,-207.87
379,1272092627,0.2573,-0.0293,-0.1636,18.60,-28.29,-217.01
380,1272097627,0.2593,0.1641,-0.1909,15.43,-26.89,-224.09
381,1272102627,0.2646,0.3569,-0.2163,13.96,-25.06,-229.27
382,1272107627,4.2041,10.4116,0.4292,16.95,-24.02,-208.84
383,1272112627,0.8564,10.3369,-0.0991,15.61,-19.15,-117.62
384,1272117627,0.7979,-0.1152,0.4790,-11.40,-21.77,-57.80
385,1272122686,1.6621,-1.0508,1.5195,-47.62,-21.22,-11.71
386,1272127628,1.0225,2.6689,0.1001,-68.60,-21.89,12.20
387,1272133001,0.8501,1.9297,-0.5532,-67.99,-25.12,20.30
388,1272137629,1.0127,2.3276,0.2202,-52.99,-24.33,16.40
389,1272142628,1.0503,0.2139,0.0229,-33.60,-21.77,19.21
390,1272147629,1.0493,-0.3638,-0.4365,-17.50,-24.33,21.16
391,1272152740,1.0332,0.4404,-0.0034,-8.05,-26.52,19.45
392,1272157629,1.0688,1.1230,0.2861,-6.59,-27.07,14.33
393,1272162628,1.0947,1.0410,0.0479,-9.94,-29.57,8.84
394,1272167631,1.0503,0.5645,0.1719,-17.56,-32.87,4.39
395,1272172628,1.0249,0.2666,0.3618,-28.72,-34.94,0.73
396,1272177629,1.0493,0.3960,0.1475,-42.26,-37.80,-2.87
397,1272182627,1.0474,0.7002,0.1235,-57.74,-41.22,-6.77
398,1272187628,1.0000,0.8228,0.2725,-75.18,-42.87,-10.55
399,1272192627,0.9629,0.7261,0.2046,-93.84,-44.27,-13.23
400,1272198255,0.9155,0.7212,0.1465,-116.83,-45.79,-15.79
401,1272202998,0.8833,0.6338,0.1841,-135.30,-46.65,-17.07
402,1272207629,0.8452,0.6841,0.2139,-149.33,-46.52,-17.56
403,1272212628,0.7910,0.7651,0.1665,-165.79,-46.59,-18.29
404,1272217629,0.7432,0.7661,0.2280,-181.89,-46.46,-18.66
405,1272222629,0.6938,0.7168,0.2534,-198.72,-45.79,-18.72
406,1272227628,0.6450,0.6860,0.2080,-216.83,-45.49,-18.60
407,1272232627,0.5913,0.6978,0.2031,-235.79,-45.55,-18.72
408,1272237629,0.5244,0.7251,0.2119,-253.72,-45.98,-18.96
409,1272242629,0.4375,0.7510,0.1729,-269.27,-46.77,-19.82
410,1272247629,0.4087,0.7056,0.1602,-280.24,-47.62,-20.73
411,1272252629,0.4536,0.6416,0.1807,-285.30,-48.23,-21.22
412,1272257629,0.5112,0.6104,0.1655,-284.27,-48.41,-21.59
413,1272262629,0.5610,0.6025,0.1182,-278.23,-48.60,-21.83
414,1272267628,0.5957,0.5972,0.0898,-267.44,-48.48,-21.83
415,1272272629,0.6064,0.5859,0.0811,-252.38,-48.35,-21.65
416,1272277627,0.5845,0.5942,0.0767,-234.21,-47.62,-20.98
417,1272282629,0.5293,0.5986,0.0713,-214.82,-46.46,-20.06
418,1272287629,0.4932,0.5879,0.0488,-196.52,-44.70,-19.02
419,1272292627,0.4834,0.5698,0.0200,-180.98,-43.11,-17.68
420,1272297627,0.4878,0.5625,-0.0049,-169.27,-41.59,-16.22
421,1272302630,0.5015,0.5591,-0.0259,-162.20,-40.24,-15.06
422,1272307629,0.5400,0.5586,-0.0405,-159.70,-39.21,-14.33
423,1272312629,0.5762,0.5557,-0.0527,-161.83,-38.23,-14.15
424,1272317629,0.5967,0.5371,-0.0669,-167.68,-37.13,-14.39
425,1272322629,0.5986,0.5259,-0.0825,-176.40,-35.98,-14.88
426,1272327629,0.6021,0.5264,-0.0977,-186.83,-34.70,-15.85
427,1272332629,0.6235,0.5386,-0.1094,-197.93,-33.35,-17.32
428,1272337630,0.6426,0.5664,-0.1313,-208.23,-31.89,-19.21
429,1272342629,0.6694,0.5596,-0.1479,-215.55,-30.24,-21.40
430,1272347629,0.7466,0.5376,-0.1396,-217.50,-28.23,-22.87
431,1272352627,0.8164,0.5449,-0.1235,-213.05,-25.61,-23.66
432,1272357629,0.8574,0.5693,-0.1094,-202.44,-22.26,-24.02
433,1272362629,0.8555,0.6030,-0.1069,-186.10,-18.41,-24.09
434,1272367628,0.8477,0.6392,-0.0781,-165.43,-14.27,-23.90
435,1272372630,0.8413,0.6768,-0.0464,-142.26,-9.57,-23.54
436,1272377629,0.8359,0.7124,-0.0459,-118.23,-4.76,-23.17
437,1272382629,0.8374,0.7217,-0.0449,-94.76,0.00,-22.74
438,1272387628,0.8364,0.7266,-0.0327,-73.05,4.57,-22.07
439,1272392628,0.8315,0.7329,-0.0234,-54.45,8.90,-21.40
440,1272397652,0.8125,0.7549,-0.0200,-39.82,12.87,-20.79
441,1272402731,0.7861,0.7729,0.0010,-29.21,16.83,-20.43
442,1272407629,0.7549,0.7876,0.0322,-22.62,20.73,-20.30
443,1272412631,0.7144,0.7983,0.0381,-19.51,24.76,-20.24
444,1272417628,0.6631,0.8486,0.0376,-19.39,28.72,-20.67
445,1272422629,0.6245,0.8691,0.0435,-20.61,32.74,-21.16
446,1272427629,0.6431,0.9756,0.1562,-21.83,36.65,-21.71
447,1272432627,0.5801,0.7485,0.1987,-25.67,39.45,-22.07
448,1272437631,0.7012,0.6514,0.6597,-31.52,43.11,-20.24
449,1272442628,0.7407,0.9985,0.4712,-36.46,46.83,-18.60
450,1272447629,0.6514,0.9189,0.0957,-45.49,45.98,-17.50
451,1272452629,0.5737,0.7925,0.6904,-51.22,46.71,-14.09
452,1272457629,0.6431,0.9722,0.7959,-54.02,50.12,-11.28
453,1272462627,0.6484,1.0815,0.4580,-56.89,50.00,-8.23
454,1272467630,0.8472,1.3359,1.1001,-61.34,48.54,-4.15
455,1272472629,0.6826,1.3491,1.1143,-71.04,50.37,0.55
456,1272477629,0.7485,1.0547,0.7070,-77.87,44.63,5.98
457,1272482627,0.7378,0.8252,1.2754,-86.10,40.24,10.79
458,1272487628,0.7100,0.8364,1.4565,-93.84,36.10,14.51
459,1272492631,0.5645,1.0356,1.0078,-98.60,31.16,17.32
460,1272497629,0.4727,1.2251,0.6807,-96.89,26.71,21.16
461,1272502628,0.4941,1.3379,0.6313,-88.60,25.12,27.01
462,1272507629,0.4478,1.2837,0.5420,-77.26,25.06,34.27
463,1272512628,0.3716,1.2119,0.3394,-66.22,24.15,42.07
464,1272517629,0.3066,1.1489,0.3921,-56.16,23.23,49.09
465,1272522628,0.6411,0.6333,0.0054,-47.62,23.48,54.88
466,1272527629,0.8813,0.3125,0.1089,-44.51,24.09,59.88
467,1272532628,0.6362,0.1299,0.3667,-37.38,27.68,60.98
468,1272537629,0.2480,0.0146,0.7612,-31.89,30.18,59.09
469,1272542627,0.0288,0.0278,0.9614,-35.61,29.63,53.17
470,1272547630,0.3511,0.1030,0.9727,-41.22,25.55,45.30
471,1272552629,0.7773,0.2856,1.0332,-41.65,21.95,37.93
472,1272557629,0.7656,0.4580,1.0132,-35.12,18.54,32.38
473,1272562683,0.5166,0.5879,0.9653,-24.21,14.94,29.39
474,1272567627,0.4277,0.7026,0.9858,-12.62,11.28,28.60
475,1272572627,0.5425,0.8120,0.9810,-1.83,7.50,29.70
476,1272577627,0.6533,0.8564,0.9487,7.01,3.48,32.32
477,1272582627,0.6030,0.8779,0.9297,12.80,-1.10,35.55
478,1272587715,0.5425,0.9062,0.9263,15.00,-5.61,39.02
479,1272592627,0.6987,0.9180,0.8955,13.35,-9.82,42.32
480,1272597627,0.7798,0.8613,0.8618,8.48,-14.33,45.30
481,1272602627,0.8926,0.7227,0.8818,0.06,-18.66,48.05
482,1272607627,0.9463,0.6470,0.8965,-11.34,-23.35,49.88
483,1272612631,0.9287,0.5747,0.9146,-23.78,-28.60,50.00
484,1272617629,1.0381,0.4634,0.9585,-35.67,-35.06,48.41
485,1272622627,0.7842,0.4658,1.0044,-46.46,-42.93,45.30
486,1272627627,0.6958,0.5244,1.0039,-52.13,-51.95,40.67
487,1272632627,0.6699,0.4961,1.1025,-51.28,-60.91,35.61
488,1272637629,0.6743,0.4678,1.1836,-45.85,-68.29,30.24
489,1272642627,0.6904,0.4492,1.1777,-38.66,-73.23,24.94
490,1272647627,0.7231,0.4497,1.1548,-31.40,-75.85,20.49
491,1272652627,0.7490,0.4824,1.1772,-24.33,-75.24,17.20
492,1272657627,0.7627,0.5366,1.1406,-18.48,-72.01,14.88
493,1272662627,0.7896,0.5630,1.1094,-15.37,-68.35,12.99
494,1272667631,0.9492,0.5713,1.1665,-16.59,-65.91,10.43
495,1272672628,0.9731,0.6313,1.1294,-23.78,-65.67,5.30
496,1272677629,0.7559,0.1724,1.3115,-34.88,-67.62,-0.30
497,1272682630,0.7271,0.3271,0.9790,-42.80,-70.37,-1.71
498,1272687627,0.7773,0.4517,1.0527,-49.21,-74.09,-1.77
499,1272692629,0.8301,0.5078,1.1660,-53.66,-77.50,-0.91
500,1272697629,0.6885,0.6372,0.9644,-53.60,-80.73,-0.49
501,1272702629,0.6636,0.5645,0.9531,-53.41,-84.94,-1.28
502,1272707628,0.7344,0.4868,1.1089,-55.85,-87.99,-2.38
503,1272712631,0.7939,0.5059,1.0894,-60.67,-89.82,-4.15
504,1272717628,0.8022,0.4824,1.0435,-66.65,-90.61,-6.16
505,1272722629,0.8955,0.4302,1.0591,-73.41,-90.43,-8.05
506,1272727628,0.7974,0.5117,1.1162,-80.24,-89.51,-9.63
507,1272732629,0.6855,0.5957,1.0576,-83.41,-88.17,-10.55
508,1272737627,0.7603,0.6548,1.0386,-82.56,-86.77,-10.06
509,1272742629,0.8599,0.7271,1.1294,-80.79,-85.30,-8.48
510,1272747630,0.8862,0.7637,1.1885,-80.37,-83.72,-6.46
511,1272752629,0.8242,0.7988,1.1919,-82.68,-82.07,-3.60
512,1272757629,0.7515,0.8389,1.1792,-88.41,-80.37,-0.67
513,1272762628,0.7314,0.8486,1.1885,-97.87,-78.66,2.56
514,1272767627,0.7520,0.8403,1.1934,-110.18,-77.20,6.16
515,1272772631,0.7764,0.8647,1.2188,-123.29,-76.83,10.06
516,1272777628,0.7554,0.9062,1.2407,-134.45,-76.65,13.72
517,1272782629,0.7324,0.8906,1.2295,-141.59,-76.59,17.26
518,1272787629,0.7271,0.8496,1.1987,-144.02,-76.83,20.91
519,1272792740,0.7163,0.7754,1.1724,-142.26,-77.38,24.51
520,1272797628,0.7236,0.7095,1.1699,-137.01,-78.17,28.23
521,1272802642,0.7559,0.6743,1.1680,-129.63,-78.84,31.46
522,1272807629,0.7656,0.6206,1.1548,-121.40,-78.66,33.96
523,1272812628,0.7495,0.5649,1.1318,-114.09,-78.78,35.91
524,1272817658,0.7578,0.5400,1.1147,-108.60,-78.54,37.38
525,1272822627,0.7998,0.5327,1.1128,-105.85,-78.54,38.29
526,1272827629,0.8472,0.5449,1.1074,-106.16,-78.96,38.54
527,1272832628,0.8633,0.5542,1.0957,-109.70,-79.39,38.72
528,1272837991,0.8696,0.6094,1.0815,-117.62,-79.63,39.27
529,1272842629,0.8618,0.6313,1.0645,-125.30,-79.88,39.63
530,1272847629,0.8384,0.6230,1.0469,-136.83,-80.24,40.24
531,1272853197,0.8047,0.6294,1.0518,-152.01,-81.16,40.91
532,1272857629,0.7866,0.6182,1.0425,-164.09,-81.83,40.91
533,1272862630,0.7588,0.5967,1.0259,-172.44,-82.26,40.79
534,1272867629,0.6875,0.5732,0.9888,-180.67,-83.17,40.73
535,1272872628,0.6426,0.5386,0.9609,-186.16,-84.39,40.37
536,1272877629,0.6343,0.4839,0.9272,-188.11,-85.43,39.88
537,1272882628,0.6475,0.4419,0.9038,-187.50,-86.46,39.02
538,1272887631,0.6631,0.4126,0.8774,-185.24,-87.20,37.74
539,1272892710,0.6768,0.3667,0.8276,-182.56,-87.74,35.98
540,1272897629,0.6973,0.3491,0.7969,-180.00,-87.80,34.02
541,1272902642,0.7246,0.3457,0.7412,-177.74,-87.62,31.71
542,1272907629,0.7412,0.3706,0.7495,-176.04,-86.83,29.27
543,1272912629,0.7593,0.3989,0.7300,-175.24,-85.49,26.83
544,1272917628,0.7651,0.4424,0.6978,-175.61,-83.90,24.76
545,1272922629,0.7812,0.4966,0.7368,-176.16,-82.38,23.23
546,1272927627,0.7207,0.4868,1.0122,-175.67,-80.24,22.32
547,1272932788,0.6694,0.5459,0.7935,-167.32,-79.63,22.38
548,1272938120,0.7632,0.5181,0.8481,-158.11,-81.52,22.13
549,1272942629,0.7319,0.1401,1.4009,-158.54,-80.98,21.22
550,1272947631,0.7461,0.1694,0.9629,-163.48,-84.15,18.96
551,1272952628,0.7280,0.2500,1.1924,-174.02,-87.74,16.40
552,1272957629,0.7158,0.2476,1.3848,-188.78,-89.27,13.41
553,1272962629,0.6802,0.1997,1.0981,-206.04,-92.26,10.12
554,1272967627,0.6738,0.1724,1.1123,-222.56,-96.04,6.77
555,1272972629,0.6812,0.1689,1.2363,-234.82,-98.17,3.72
556,1272977629,0.7095,0.1812,1.0229,-239.76,-100.12,0.85
557,1272982955,0.7393,0.2388,0.9014,-235.67,-102.26,-2.13
558,1272988015,0.7393,0.3027,0.9487,-226.40,-103.48,-4.15
559,1272992629,0.7437,0.3325,0.8716,-217.74,-103.60,-5.67
560,1272997629,0.7534,0.4038,0.7817,-208.41,-104.63,-7.50
561,1273002629,0.7505,0.4561,0.8140,-202.87,-105.30,-9.21
562,1273007627,0.7388,0.5166,0.7485,-202.01,-106.04,-10.73
563,1273012631,0.7197,0.5854,0.6743,-205.24,-107.44,-12.07
564,1273017629,0.6958,0.6602,0.6768,-210.61,-108.96,-12.99
565,1273022628,0.6841,0.7144,0.6377,-215.91,-110.61,-13.72
566,1273027629,0.6797,0.7686,0.5630,-218.54,-112.74,-13.54
567,1273032627,0.6670,0.8223,0.5444,-217.07,-114.63,-12.99
568,1273037627,0.6602,0.8516,0.5034,-211.28,-116.46,-11.95
569,1273042627,0.6484,0.8716,0.4409,-202.32,-118.29,-10.18
570,1273047627,0.6475,0.8921,0.3945,-191.83,-119.82,-8.29
571,1273052629,0.6636,0.9033,0.3608,-181.77,-120.91,-6.28
572,1273057629,0.6743,0.9224,0.3145,-174.21,-121.71,-4.51
573,1273062629,0.6479,0.9365,0.2656,-170.79,-122.44,-2.56
574,1273067629,0.6069,0.9575,0.2451,-171.52,-123.17,-0.55
575,1273072629,0.5859,0.9751,0.2056,-174.15,-123.96,1.65
576,1273077629,0.5806,0.9897,0.1689,-176.34,-124.70,4.02
577,1273082629,0.5688,1.0010,0.1450,-176.46,-125.24,6.71
578,1273087630,0.5679,1.0015,0.0957,-174.33,-125.67,9.27
579,1273092629,0.5620,0.9976,0.0581,-170.67,-125.85,12.07
580,1273097627,0.5718,0.9873,0.0078,-164.88,-125.85,15.00
581,1273102629,0.5933,0.9731,-0.0210,-160.61,-125.61,16.59
582,1273107629,0.6011,0.9507,-0.0654,-155.43,-125.06,18.41
583,1273112985,0.6113,0.9146,-0.1060,-150.73,-124.15,19.70
584,1273117631,0.6147,0.8828,-0.1514,-148.60,-123.23,20.30
585,1273122628,0.6147,0.8467,-0.1831,-147.20,-122.07,20.43
586,1273128003,0.6162,0.8037,-0.2402,-145.73,-120.49,20.06
587,1273132629,0.6162,0.7729,-0.2764,-144.57,-119.15,19.57
588,1273137629,0.6279,0.7344,-0.3311,-142.20,-117.26,18.72
589,1273142629,0.6299,0.6870,-0.3628,-138.05,-115.12,17.50
590,1273147902,0.6099,0.6396,-0.4111,-131.16,-111.89,16.52
591,1273152629,0.5898,0.6123,-0.4380,-126.46,-109.70,15.91
592,1273157628,0.5757,0.5835,-0.4712,-121.40,-107.13,15.24
593,1273162629,0.5747,0.5640,-0.4878,-116.59,-104.27,14.51
594,1273167629,0.5669,0.5410,-0.4956,-111.89,-101.46,13.90
595,1273172628,0.5586,0.5273,-0.5083,-108.29,-98.66,13.23
596,1273177629,0.5664,0.5107,-0.5229,-105.91,-95.67,12.74
597,1273182628,0.5703,0.4941,-0.5239,-104.09,-93.41,12.01
598,1273187630,0.5654,0.4629,-0.5317,-101.52,-90.12,11.40
599,1273192627,0.5693,0.4380,-0.5322,-98.11,-87.26,10.79
600,1273197632,0.5820,0.4204,-0.5386,-93.84,-84.09,10.00
601,1273202628,0.5957,0.3906,-0.5557,-89.21,-80.67,9.09
602,1273207631,0.5913,0.3657,-0.5684,-85.24,-77.13,7.87
603,1273212628,0.5967,0.3452,-0.5981,-82.50,-73.60,6.59
604,1273217629,0.6123,0.3262,-0.6016,-80.43,-70.12,4.63
605,1273222628,0.6235,0.3140,-0.6089,-78.48,-66.40,2.56
606,1273227627,0.6099,0.2983,-0.6167,-77.20,-62.87,0.55
607,1273232627,0.6104,0.2930,-0.6279,-76.22,-59.57,-1.52
608,1273237627,0.6118,0.2896,-0.6230,-75.00,-56.77,-3.60
609,1273242629,0.6201,0.2891,-0.6147,-72.99,-54.21,-5.61
610,1273247627,0.6040,0.2910,-0.6040,-70.18,-51.83,-7.50
611,1273252627,0.6050,0.2856,-0.6074,-66.71,-49.70,-9.51
612,1273257627,0.6099,0.2671,-0.6064,-62.32,-47.87,-11.34
613,1273262631,0.6089,0.2476,-0.5972,-57.13,-45.91,-13.35
614,1273267629,0.6147,0.2319,-0.6021,-51.65,-44.33,-15.55
615,1273272628,0.6206,0.2114,-0.5972,-46.40,-42.50,-18.05
616,1273277627,0.6001,0.1919,-0.6001,-42.13,-40.61,-20.55
617,1273282630,0.5903,0.1846,-0.5967,-38.90,-38.84,-23.29
618,1273287806,0.5972,0.1768,-0.5825,-36.71,-36.71,-25.98
619,1273292629,0.5869,0.1841,-0.5835,-35.43,-34.57,-28.78
620,1273297627,0.5781,0.1836,-0.5815,-35.06,-32.44,-31.40
621,1273302665,0.5664,0.2007,-0.5649,-34.33,-30.43,-33.84
622,1273307629,0.5630,0.2104,-0.5649,-32.99,-28.66,-36.28
623,1273312629,0.5503,0.2188,-0.5708,-31.10,-27.13,-38.54
624,1273317630,0.5493,0.2305,-0.5679,-28.29,-25.85,-40.91
625,1273322629,0.5430,0.2378,-0.5674,-24.45,-24.70,-43.35
626,1273327627,0.5552,0.2363,-0.5815,-20.79,-24.02,-46.22
627,1273332629,0.5625,0.2334,-0.6040,-17.68,-23.60,-49.57
628,1273337627,0.5620,0.2202,-0.6235,-14.27,-23.41,-53.23
629,1273342627,0.5503,0.1978,-0.6523,-9.33,-23.11,-57.13
630,1273347629,0.5439,0.1855,-0.6753,-3.05,-22.62,-61.16
631,1273352629,0.5591,0.2061,-0.6704,3.72,-21.95,-65.43
632,1273357629,0.5361,0.2178,-0.6714,10.00,-21.22,-69.82
633,1273362628,0.4854,0.2456,-0.6646,14.88,-20.73,-73.66
634,1273367629,0.4761,0.2827,-0.6611,18.23,-20.12,-77.38
635,1273372628,0.4844,0.3208,-0.6519,21.22,-19.76,-80.79
636,1273377627,0.4897,0.3618,-0.6323,25.24,-19.57,-84.15
637,1273382629,0.4966,0.3955,-0.6318,30.55,-19.21,-87.62
638,1273387628,0.5103,0.4146,-0.6484,37.20,-19.27,-91.04
639,1273392627,0.5308,0.4258,-0.6777,44.57,-19.57,-94.51
640,1273397629,0.5366,0.4453,-0.7036,52.93,-19.88,-98.29
641,1273402627,0.5283,0.4717,-0.7480,60.85,-20.43,-102.62
642,1273407627,0.5029,0.4951,-0.8076,66.77,-21.16,-107.32
643,1273412627,0.4487,0.5264,-0.8809,69.82,-21.89,-112.32
644,1273418528,0.4111,0.6123,-0.9424,71.59,-22.93,-119.15
645,1273422629,0.4028,0.6836,-0.9883,73.23,-23.72,-123.84
646,1273427630,0.3198,0.7690,-1.0205,77.50,-24.88,-129.57
647,1273432629,0.2393,0.8696,-1.0825,84.76,-26.65,-134.63
648,1273437865,0.1836,0.9546,-1.1455,95.73,-28.48,-139.21
649,1273442629,0.1616,1.0107,-1.2085,110.79,-30.49,-143.29
650,1273447628,0.1455,1.0625,-1.2676,129.33,-32.13,-147.32
651,1273452627,0.1592,1.1138,-1.3301,147.87,-33.90,-152.01
652,1273457627,0.1992,1.1533,-1.4126,164.09,-35.43,-157.74
653,1273463248,0.2295,1.1787,-1.5098,179.09,-37.07,-165.98
654,1273467631,0.2388,1.1943,-1.5796,187.32,-38.11,-172.26
655,1273472628,0.2471,1.2295,-1.6543,197.56,-39.27,-180.79
656,1273477629,0.1943,1.2549,-1.7432,209.21,-40.43,-189.94
657,1273482628,0.0933,1.2944,-1.8130,223.35,-41.52,-198.66
658,1273487630,-0.0146,1.3481,-1.9004,240.18,-42.74,-206.89
659,1273492628,-0.1357,1.4009,-1.9790,259.51,-44.21,-214.27
660,1273497629,-0.2529,1.4517,-2.0615,280.06,-45.85,-220.91
661,1273502627,-0.3364,1.5010,-2.1440,300.37,-47.50,-226.52
662,1273507627,-0.3838,1.5469,-2.2124,319.94,-48.90,-231.59
663,1273512629,-0.3813,1.5991,-2.2573,340.06,-49.21,-236.65
664,1273517651,-0.3633,1.6099,-2.3232,362.01,-48.66,-241.77
665,1273522629,-0.3438,1.6084,-2.3604,386.16,-46.59,-247.13
666,1273527629,-0.2886,1.5815,-2.3525,411.83,-42.74,-252.87
667,1273532628,-0.1562,1.6064,-2.3213,436.52,-37.44,-259.63
668,1273537652,-0.0889,1.6069,-2.2764,456.28,-30.37,-267.38
669,1273542627,-0.0923,1.5698,-2.2100,466.65,-21.89,-275.55
670,1273547629,-0.0430,1.5420,-2.1255,466.04,-11.34,-283.72
671,1273552628,0.0605,1.5166,-2.0342,457.01,0.67,-291.52
672,1273557629,0.1440,1.5337,-1.9067,443.54,14.15,-299.15
673,1273562628,0.1499,1.5469,-1.8198,427.74,28.84,-306.10
674,1273567629,0.1113,1.5903,-1.7476,412.01,43.23,-311.77
675,1273572628,0.0757,1.6816,-1.6475,400.49,57.32,-316.83
676,1273577629,0.0688,1.7715,-1.5781,396.04,70.00,-321.34
677,1273582628,0.0176,1.9243,-1.4648,399.45,80.61,-325.49
678,1273587629,-0.1270,2.0522,-1.4014,408.72,88.17,-328.90
679,1273592628,-0.2329,2.1909,-1.3203,421.46,94.21,-331.52
680,1273597627,-0.2290,2.3198,-1.2017,437.01,98.29,-333.60
681,1273602631,-0.1538,2.4463,-1.0093,453.90,101.52,-335.24
682,1273607628,-0.2041,2.5391,-0.8315,466.52,104.70,-335.43
683,1273612627,-0.2300,2.6113,-0.7065,466.10,108.05,-333.90
684,1273617627,-0.1309,2.6880,-0.5928,450.91,111.46,-330.73
685,1273622629,-0.0503,2.6846,-0.4336,426.89,116.34,-325.67
686,1273627683,0.0454,2.6948,-0.2344,398.78,123.05,-318.90
687,1273632628,0.1719,2.6572,-0.1289,367.99,131.28,-310.91
688,1273637629,0.2378,2.6362,-0.0322,336.40,139.88,-301.65
689,1273642628,0.2734,2.5942,0.0908,309.15,147.87,-291.52
690,1273647929,0.2974,2.5508,0.1729,285.91,155.98,-279.27
691,1273652629,0.3018,2.5244,0.1934,276.28,159.88,-271.28
692,1273657628,0.3306,2.5151,0.2456,269.51,162.56,-262.38
693,1273662627,0.4121,2.5586,0.3032,266.10,164.15,-254.88
694,1273667629,0.3730,2.5356,0.2480,260.12,164.21,-248.35
695,1273672629,0.3613,2.5610,0.2490,250.49,163.23,-241.95
696,1273677629,0.4595,2.5327,0.2666,242.32,162.07,-235.73
697,1273682629,0.5923,2.5054,0.3301,239.21,161.59,-229.45
698,1273687629,0.6846,2.4819,0.3794,238.60,161.59,-222.87
699,1273692629,0.7441,2.4829,0.4399,235.98,161.16,-215.85
700,1273697629,0.7607,2.4907,0.5264,230.24,160.18,-207.93
701,1273702630,0.7427,2.5093,0.6279,222.20,157.99,-198.96
702,1273707627,0.6895,2.5044,0.7017,211.22,154.88,-188.90
703,1273712627,0.6313,2.4702,0.7310,196.83,150.24,-177.80
704,1273717627,0.5830,2.4194,0.7642,179.94,144.39,-165.98
705,1273722627,0.5503,2.3384,0.7739,162.99,137.44,-154.09
706,1273727629,0.5513,2.2534,0.7451,147.44,129.82,-142.07
707,1273732628,0.5825,2.1660,0.7197,134.21,122.32,-130.85
708,1273737629,0.6313,2.0659,0.6196,122.32,114.94,-120.30
709,1273742628,0.7729,2.0098,0.5830,113.66,108.11,-110.73
710,1273747627,0.8105,1.9521,0.5439,106.95,102.26,-102.01
711,1273752627,0.7466,1.9268,0.4634,98.05,96.89,-93.05
712,1273757627,0.7524,1.9014,0.4136,87.32,91.71,-83.84
713,1273762631,0.7510,1.8652,0.3989,79.15,86.71,-74.39
714,1273767629,0.7446,1.8032,0.3579,75.00,84.09,-64.63
715,1273772628,0.7656,1.7227,0.3066,74.02,80.91,-54.88
716,1273777629,0.7803,1.6182,0.2671,74.94,78.35,-45.37
717,1273782628,0.7998,1.5166,0.2402,75.85,76.40,-36.40
718,1273787629,0.8286,1.4155,0.1899,74.33,74.82,-28.66
719,1273792628,0.8755,1.3057,0.1387,69.88,73.60,-22.20
720,1273797630,0.9238,1.1997,0.0884,63.60,72.44,-17.01
721,1273802628,0.9478,1.0957,0.0464,57.13,71.52,-12.87
722,1273807990,0.9507,1.0005,-0.0195,50.30,70.18,-8.90
723,1273812629,0.9585,0.9375,-0.0439,46.34,69.21,-6.77
724,1273817629,0.9663,0.8833,-0.0713,42.01,68.23,-4.57
725,1273822628,0.9517,0.8364,-0.0864,37.87,67.38,-2.44
726,1273827627,0.8730,0.7944,-0.0952,32.68,66.40,-0.12
727,1273832699,0.7900,0.7612,-0.0894,25.98,65.43,2.38
728,1273837629,0.7588,0.7104,-0.0884,17.07,63.90,5.85
729,1273842629,0.7212,0.6782,-0.0874,10.79,62.68,8.23
730,1273847629,0.6836,0.6465,-0.0879,3.48,61.46,11.28
731,1273852627,0.6816,0.6138,-0.1064,-3.78,60.30,14.21
732,1273857629,0.6860,0.5723,-0.1304,-10.06,59.27,16.59
733,1273862628,0.6929,0.5288,-0.1519,-14.76,58.29,18.29
734,1273867627,0.7231,0.4985,-0.1758,-17.38,57.56,19.33
735,1273872631,0.7788,0.4751,-0.2085,-19.02,56.83,19.27
736,1273877629,0.8052,0.4556,-0.2310,-20.12,55.91,18.17
737,1273882628,0.8159,0.4453,-0.2549,-21.40,55.30,16.34
738,1273887629,0.8291,0.4536,-0.2739,-22.74,54.63,13.96
739,1273892628,0.8418,0.4810,-0.2827,-23.78,54.27,11.16
740,1273897629,0.8062,0.5059,-0.2788,-24.33,53.60,8.72
741,1273902629,0.7529,0.5537,-0.2808,-24.45,52.80,7.13
742,1273907629,0.6973,0.5942,-0.2627,-24.21,52.13,6.40
743,1273912629,0.6450,0.6309,-0.2559,-23.60,50.91,6.59
744,1273917628,0.6025,0.6489,-0.2358,-22.26,49.57,7.44
745,1273922629,0.5601,0.6460,-0.2158,-20.12,48.17,9.21
746,1273927627,0.5156,0.6353,-0.1948,-18.11,46.52,11.46
747,1273932627,0.4966,0.6123,-0.1885,-17.32,44.70,14.09
748,1273937627,0.5049,0.5781,-0.1782,-18.48,42.87,16.46
749,1273942628,0.5063,0.5371,-0.1714,-21.40,41.34,18.72
750,1273947627,0.5312,0.4971,-0.1753,-26.22,39.82,20.49
751,1273952627,0.5449,0.4570,-0.1821,-32.93,38.84,21.59
752,1273957629,0.5615,0.4307,-0.1831,-40.18,38.11,22.26
753,1273962628,0.5820,0.4121,-0.1987,-47.62,37.68,22.32
754,1273967629,0.5801,0.3926,-0.2119,-54.51,37.80,22.13
755,1273972628,0.5815,0.3823,-0.2271,-60.37,37.87,21.83
756,1273977629,0.5742,0.3794,-0.2437,-65.00,38.41,21.46
757,1273982628,0.5698,0.3755,-0.2520,-68.48,39.15,21.28
758,1273987629,0.5698,0.3774,-0.2671,-71.59,40.18,20.91
759,1273992628,0.5625,0.3818,-0.2822,-74.15,41.04,20.73
760,1273997629,0.5522,0.3877,-0.2832,-75.55,42.01,20.49
761,1274002628,0.5361,0.3926,-0.2871,-75.37,42.87,20.24
762,1274007627,0.5166,0.4043,-0.2959,-74.21,43.23,19.76
763,1274012630,0.5117,0.4092,-0.2930,-71.89,43.35,19.15
764,1274017629,0.5093,0.4189,-0.2773,-69.15,43.23,18.35
765,1274022629,0.5010,0.4180,-0.2822,-66.34,43.17,17.07
766,1274027627,0.4995,0.4243,-0.2700,-64.21,42.62,15.49
767,1274032629,0.4985,0.4165,-0.2676,-63.17,42.07,13.66
768,1274037630,0.4824,0.4155,-0.2524,-63.05,41.46,12.07
769,1274042629,0.4683,0.4150,-0.2363,-63.96,40.61,10.49
770,1274047631,0.4580,0.4087,-0.2163,-66.46,39.94,9.09
771,1274052628,0.4517,0.3984,-0.2075,-70.49,39.21,8.11
772,1274057629,0.4512,0.3896,-0.1943,-76.59,38.66,7.38
773,1274062628,0.4414,0.3818,-0.1821,-84.15,38.11,6.95
774,1274067627,0.4272,0.3784,-0.1729,-92.74,37.62,7.07
775,1274072629,0.4351,0.3848,-0.1699,-101.71,37.32,7.20
776,1274077629,0.4282,0.3921,-0.1797,-110.73,37.56,7.50
777,1274082629,0.4219,0.3984,-0.1816,-118.66,37.68,7.80
778,1274087629,0.4282,0.4111,-0.1895,-124.57,38.17,7.74
779,1274092628,0.4409,0.4268,-0.1782,-127.56,39.09,7.38
780,1274097629,0.4736,0.4277,-0.1797,-127.07,40.61,6.46
781,1274102628,0.5088,0.4419,-0.1772,-123.78,42.26,4.94
782,1274107627,0.5322,0.4409,-0.1689,-118.90,44.09,2.80
783,1274112631,0.5464,0.4214,-0.1577,-113.29,46.04,0.37
784,1274117628,0.5601,0.3945,-0.1528,-108.84,47.68,-2.13
785,1274122629,0.5444,0.3745,-0.1465,-106.95,49.21,-4.39
786,1274127627,0.5244,0.3662,-0.1333,-108.23,50.18,-6.28
787,1274132632,0.5254,0.3711,-0.1313,-112.32,50.43,-7.99
788,1274137628,0.5244,0.3906,-0.1157,-118.23,50.37,-9.70
789,1274143002,0.5210,0.4258,-0.1050,-126.89,49.70,-11.65
790,1274147629,0.5024,0.4482,-0.1021,-132.93,48.96,-13.11
791,1274152628,0.4800,0.4878,-0.0967,-140.30,48.11,-14.70
792,1274157627,0.4448,0.5264,-0.0781,-146.52,47.50,-16.28
793,1274162631,0.3872,0.5635,-0.0757,-151.89,46.59,-18.29
794,1274167652,0.3501,0.5898,-0.0820,-153.96,46.40,-20.12
795,1274172629,0.3271,0.6001,-0.0771,-153.23,46.40,-21.65
796,1274177629,0.3184,0.5967,-0.0728,-149.15,46.71,-23.41
797,1274182629,0.3154,0.5830,-0.0737,-141.71,47.38,-25.18
798,1274187676,0.3408,0.5503,-0.0713,-131.71,48.11,-26.89
799,1274192628,0.3735,0.5156,-0.0791,-121.22,48.72,-28.41
800,1274197632,0.3926,0.4922,-0.0825,-112.07,49.09,-29.94
801,1274202629,0.4185,0.4761,-0.0854,-106.34,49.27,-32.01
802,1274207629,0.4648,0.4692,-0.0859,-104.21,49.02,-34.27
803,1274212721,0.5020,0.4775,-0.0742,-106.16,48.48,-37.13
804,1274217630,0.5464,0.5000,-0.0674,-111.34,47.80,-40.79
805,1274222629,0.5781,0.5166,-0.0620,-119.27,47.07,-44.82
806,1274227627,0.5977,0.5410,-0.0640,-128.84,46.40,-49.15
807,1274232629,0.6016,0.5737,-0.0444,-138.17,45.79,-53.72
808,1274237629,0.5884,0.6152,-0.0239,-145.55,45.61,-58.23
809,1274242628,0.5508,0.6543,0.0005,-149.76,45.79,-62.62
810,1274247631,0.5142,0.6846,0.0093,-149.94,45.98,-66.52
811,1274252628,0.4697,0.7085,0.0229,-146.10,46.40,-69.76
812,1274257629,0.4224,0.7090,0.0400,-138.17,46.83,-72.20
813,1274262628,0.3647,0.6943,0.0522,-127.50,47.13,-73.54
814,1274267629,0.3130,0.6880,0.0547,-115.79,47.13,-74.15
815,1274272628,0.2739,0.6812,0.0645,-104.88,47.26,-74.09
816,1274277629,0.2769,0.6704,0.0786,-96.34,46.71,-73.78
817,1274282629,0.2842,0.6621,0.0791,-91.59,46.10,-73.29
818,1274287629,0.3032,0.6665,0.0713,-90.91,45.24,-72.87
819,1274292628,0.3267,0.6826,0.0586,-94.15,43.96,-72.56
820,1274297664,0.3491,0.7056,0.0669,-100.00,42.38,-72.56
821,1274302628,0.3838,0.7295,0.0684,-106.83,41.16,-72.99
822,1274307629,0.4399,0.7554,0.0737,-113.11,39.88,-73.90
823,1274312628,0.4937,0.7759,0.0879,-117.44,39.09,-75.37
824,1274317631,0.5498,0.7905,0.0928,-120.24,38.66,-77.26
825,1274322628,0.5918,0.8066,0.0859,-121.40,38.48,-79.76
826,1274327627,0.6099,0.8188,0.0845,-121.16,38.66,-82.38
827,1274332629,0.6157,0.8325,0.0962,-119.21,39.15,-85.24
828,1274337628,0.6294,0.8501,0.1021,-115.00,39.82,-88.35
829,1274342631,0.6343,0.8716,0.1162,-109.15,40.73,-91.46
830,1274347629,0.6240,0.8706,0.1187,-102.32,41.40,-94.45
831,1274352628,0.5898,0.8604,0.1133,-95.49,41.83,-96.89
832,1274357627,0.5513,0.8486,0.1250,-89.70,41.95,-98.72
833,1274362629,0.5356,0.8442,0.1299,-85.24,41.71,-100.12
834,1274367629,0.5176,0.8501,0.1333,-82.68,40.79,-101.10
835,1274372628,0.5312,0.8643,0.1265,-82.13,39.45,-102.13
836,1274377629,0.5742,0.8857,0.1279,-82.99,37.80,-103.29
837,1274382629,0.6206,0.9053,0.1348,-84.39,35.98,-104.70
838,1274387873,0.6680,0.9312,0.1406,-85.18,33.78,-106.71
839,1274392629,0.7017,0.9443,0.1572,-84.39,32.38,-108.11
840,1274397670,0.7109,0.9683,0.1641,-81.71,30.67,-109.76
841,1274402628,0.6978,0.9922,0.1816,-77.44,28.96,-111.16
842,1274407629,0.6807,1.0186,0.1992,-71.34,27.38,-112.20
843,1274412628,0.6509,1.0508,0.2212,-64.09,25.67,-112.74
844,1274417627,0.6177,1.0854,0.2544,-56.40,24.21,-112.56
845,1274422631,0.5620,1.1255,0.2778,-49.45,22.56,-111.71
846,1274427629,0.5176,1.1641,0.3032,-43.96,21.22,-110.49
847,1274432629,0.4746,1.1919,0.3296,-40.30,19.63,-108.48
848,1274437629,0.4409,1.2139,0.3516,-38.41,18.05,-105.98
849,1274442629,0.4102,1.2275,0.3604,-38.11,16.22,-103.11
850,1274447627,0.3667,1.2310,0.3770,-38.60,14.39,-99.70
851,1274452627,0.3311,1.2271,0.3901,-39.63,12.50,-95.91
852,1274457627,0.3110,1.2178,0.3975,-41.04,10.37,-91.71
853,1274462629,0.2969,1.2051,0.4004,-42.68,8.11,-87.56
854,1274467627,0.3110,1.1870,0.4092,-44.45,6.04,-83.23
855,1274472629,0.3325,1.1670,0.4053,-46.59,3.78,-79.09
856,1274477629,0.3623,1.1548,0.3984,-48.48,1.59,-75.43
857,1274482628,0.3965,1.1357,0.3872,-50.00,-0.37,-72.01
858,1274487627,0.4316,1.1040,0.3765,-50.91,-2.01,-68.96
859,1274492629,0.4917,1.0762,0.3623,-50.43,-3.41,-66.46
860,1274497629,0.5308,1.0518,0.3652,-48.29,-4.51,-64.15
861,1274502629,0.5532,1.0352,0.3657,-44.76,-5.12,-62.32
862,1274507629,0.6372,1.1357,0.3823,-40.24,-5.43,-60.91
863,1274512629,0.6724,1.0444,0.3330,-35.79,-5.91,-59.51
864,1274517629,0.5840,1.0376,0.4028,-31.52,-6.04,-57.74
865,1274522630,0.5869,1.0229,0.3760,-27.74,-6.04,-56.77
866,1274527627,0.6431,1.0679,0.3413,-24.94,-6.65,-55.73
867,1274532627,0.7358,1.1963,0.4805,-24.15,-7.56,-54.27
868,1274537627,0.7451,1.3706,0.4644,-27.74,-9.45,-51.34
869,1274542629,0.6968,1.5103,0.3276,-27.99,-11.22,-49.02
870,1274547629,0.6265,1.2578,0.3892,-26.83,-12.62,-46.22
871,1274552629,0.7139,1.1250,0.3779,-25.37,-13.90,-43.48
872,1274557668,0.7656,1.1919,0.2217,-22.62,-15.98,-41.16
873,1274562628,0.7407,1.2983,0.2231,-17.56,-17.56,-39.02
874,1274567629,0.7744,1.2837,0.2407,-11.10,-18.11,-37.62
875,1274572628,0.8315,1.2368,0.1182,-3.17,-18.66,-36.52
876,1274577629,0.8623,1.1904,0.1387,4.82,-19.39,-35.55
877,1274582628,0.8784,1.1689,0.1846,11.89,-19.02,-34.51
878,1274587629,0.8672,1.1885,0.1177,17.99,-18.72,-33.60
879,1274592628,0.8281,1.2046,0.1162,23.11,-18.23,-32.68
880,1274597629,0.7979,1.2021,0.1694,26.65,-17.13,-31.46
881,1274602628,0.7622,1.1943,0.1699,28.05,-15.91,-30.00
882,1274607627,0.7222,1.1641,0.1763,27.56,-14.57,-28.48
883,1274612629,0.6777,1.1274,0.1948,25.18,-12.74,-26.65
884,1274617630,0.6382,1.1035,0.1870,21.83,-10.55,-24.94
885,1274622628,0.5991,1.0894,0.1704,18.23,-8.17,-23.29
886,1274627631,0.5693,1.0757,0.1665,14.27,-5.67,-21.52
887,1274632628,0.5234,1.0552,0.1753,9.94,-2.68,-19.70
888,1274637627,0.5073,1.0435,0.1470,5.12,-0.18,-17.87
889,1274642627,0.5146,1.0518,0.1299,0.37,2.50,-16.04
890,1274647629,0.5312,1.0615,0.1650,-3.35,5.12,-14.45
891,1274652628,0.5503,1.0815,0.1592,-5.61,7.62,-12.87
892,1274657629,0.5835,1.1016,0.1450,-6.10,9.70,-11.40
893,1274662628,0.6138,1.1284,0.1646,-4.27,11.89,-9.88
894,1274667629,0.6367,1.1567,0.1514,-0.30,13.84,-8.35
895,1274672628,0.6489,1.1831,0.1382,5.85,15.61,-6.89
896,1274677629,0.6504,1.2061,0.1353,13.96,17.32,-5.18
897,1274682628,0.6548,1.2153,0.1265,23.60,18.66,-3.66
898,1274687631,0.6694,1.2036,0.1372,34.57,19.88,-1.95
899,1274692628,0.6836,1.1987,0.1245,46.83,20.91,-0.30
900,1274697629,0.7012,1.1934,0.1265,59.76,21.83,1.16
901,1274702628,0.7085,1.1826,0.1562,72.26,22.80,2.68
902,1274707627,0.6909,1.1631,0.1968,82.44,23.78,3.84
903,1274712627,0.6738,1.1172,0.2520,88.72,24.88,4.88
904,1274717629,0.6665,1.0859,0.2695,89.88,25.98,5.49
905,1274722627,0.6855,1.0557,0.2925,85.61,27.01,5.91
906,1274727627,0.6821,1.0322,0.3018,77.01,27.99,6.22
907,1274732627,0.6636,1.0142,0.2812,65.67,28.84,6.59
908,1274737629,0.6406,0.9927,0.2773,53.54,29.94,7.13
909,1274742629,0.6196,0.9614,0.2534,42.38,31.16,7.74
910,1274747628,0.6094,0.9312,0.2173,32.20,33.11,8.96
911,1274752630,0.6021,0.9077,0.2046,27.62,34.39,9.82
912,1274757629,0.6060,0.8872,0.2012,24.63,36.10,11.22
913,1274762629,0.6074,0.8672,0.1992,24.27,38.05,12.56
914,1274767629,0.6201,0.8545,0.2178,25.67,39.70,13.66
915,1274772629,0.6465,0.8472,0.2588,28.54,41.34,14.63
916,1274777627,0.6724,0.8428,0.2817,32.87,42.62,15.61
917,1274782631,0.6992,0.8652,0.2983,39.15,43.35,16.59
918,1274787629,0.7329,0.9014,0.3174,47.50,44.15,17.62
919,1274792629,0.7754,0.9497,0.3428,58.29,44.70,18.84
920,1274797629,0.7979,1.0059,0.3511,70.85,45.24,20.18
921,1274802629,0.8096,1.0649,0.3643,84.39,46.04,21.77
922,1274807629,0.8120,1.1138,0.3960,97.50,46.77,23.78
923,1274812629,0.8091,1.1562,0.4014,109.27,47.80,25.91
924,1274817629,0.8032,1.1831,0.4097,118.96,48.60,28.23
925,1274822629,0.7910,1.1899,0.4243,126.28,49.45,30.37
926,1274827629,0.7773,1.1968,0.4150,129.45,50.43,32.50
927,1274832630,0.7671,1.1836,0.3892,131.59,51.52,34.33
928,1274837627,0.7476,1.1689,0.3687,130.98,52.87,35.91
929,1274842629,0.7393,1.1460,0.3457,127.80,54.21,37.26
930,1274847628,0.7246,1.1279,0.3188,122.44,55.91,38.48
931,1274852629,0.7178,1.1045,0.2964,115.98,57.50,39.39
932,1274857627,0.7061,1.0903,0.2739,108.84,59.27,40.06
933,1274862629,0.7002,1.0781,0.2666,101.46,61.16,40.79
934,1274867627,0.6904,1.0586,0.2573,94.39,62.99,41.34
935,1274872629,0.6768,1.0361,0.2500,87.93,64.88,41.95
936,1274877628,0.6724,1.0161,0.2471,82.26,66.71,42.74
937,1274882627,0.6719,0.9873,0.2529,77.50,68.48,43.35
938,1274887629,0.7275,0.8354,0.2153,73.35,70.49,43.90
939,1274893281,0.8169,0.6426,0.2988,67.62,72.50,43.05
940,1274897629,0.7734,0.5859,0.4629,64.09,73.48,41.16
941,1274902629,0.7666,0.5210,0.6235,60.06,73.60,37.87
942,1274907629,0.7993,0.4902,0.6196,53.66,72.26,34.15
943,1274912629,0.7339,0.5312,0.5444,45.00,70.67,30.55
944,1274917629,0.6499,0.5913,0.4355,37.44,69.27,27.32
945,1274922629,0.6074,0.6440,0.3184,32.87,68.72,25.12
946,1274927629,0.5718,0.6855,0.2500,31.95,68.90,23.78
947,1274932670,0.5513,0.6934,0.1899,34.09,69.88,23.48
948,1274937629,0.5596,0.6978,0.1519,38.78,71.04,23.84
949,1274942629,0.5552,0.7100,0.1616,44.88,73.05,24.51
950,1274947629,0.5547,0.7324,0.1504,51.40,75.24,25.12
951,1274952627,0.5488,0.7520,0.1372,57.07,77.26,25.73
952,1274957629,0.5415,0.7598,0.1475,61.16,79.09,26.28
953,1274962629,0.5376,0.7451,0.1729,63.29,80.73,27.01
954,1274967630,0.5332,0.7637,0.1899,63.48,82.74,27.68
955,1274972628,0.5400,0.7617,0.1831,61.77,84.02,28.48
956,1274977629,0.5347,0.7544,0.1982,58.60,85.85,28.96
957,1274982629,0.5459,0.7441,0.2285,54.45,85.98,29.33
958,1274987628,0.5649,0.7129,0.2583,49.27,87.99,29.51
959,1274993180,0.5532,0.6655,0.2773,41.52,89.51,29.70
960,1274997629,0.5195,0.6553,0.2700,36.22,90.49,29.57
961,1275002628,0.4653,0.6450,0.2549,29.88,91.71,29.70
962,1275007631,0.4268,0.6396,0.2407,24.45,92.80,29.88
963,1275012629,0.4009,0.6470,0.2573,20.06,93.72,30.00
964,1275017629,0.4004,0.6538,0.2886,17.20,94.27,30.06
965,1275022629,0.3965,0.6504,0.3208,15.67,94.27,30.43
966,1275027629,0.3555,0.6431,0.3027,14.63,93.72,30.67
967,1275032627,0.4102,0.6470,0.3574,14.27,92.44,31.34
968,1275037629,0.4326,0.6733,0.3623,14.94,91.83,32.13
969,1275043101,0.4102,0.7134,0.3188,15.55,90.79,33.41
970,1275047631,0.3950,0.7383,0.2817,15.61,89.70,34.33
971,1275052628,0.3989,0.7412,0.3018,14.27,88.17,35.73
972,1275058151,0.4346,0.7271,0.2842,11.28,86.65,37.62
973,1275062629,0.4585,0.7295,0.2720,8.54,85.67,38.90
974,1275067628,0.4697,0.7588,0.2852,4.88,85.06,40.43
975,1275072629,0.4648,0.7896,0.2949,0.85,85.37,41.52
976,1275077628,0.4722,0.7881,0.3096,-2.62,85.18,42.62
977,1275082629,0.4893,0.8042,0.3184,-5.73,83.48,43.35
978,1275087628,0.4995,0.8125,0.3403,-8.29,82.62,44.02
979,1275092629,0.5142,0.8086,0.3525,-10.24,81.77,44.63
980,1275097628,0.5352,0.8008,0.3447,-11.77,80.43,45.12
981,1275102629,0.5532,0.8032,0.3589,-12.93,78.84,45.61
982,1275107628,0.5859,0.8213,0.3457,-14.21,77.01,45.98
983,1275112629,0.5874,0.8271,0.3882,-14.88,75.24,46.40
984,1275117628,0.5957,0.8418,0.3535,-14.76,73.72,46.71
985,1275122698,0.6289,0.8462,0.3369,-13.72,72.01,47.13
986,1275127629,0.6602,0.8545,0.3564,-12.56,70.61,47.38
987,1275132628,0.6733,0.8604,0.3579,-11.34,69.21,47.56
988,1275137629,0.6836,0.8638,0.3555,-10.49,67.62,47.62
989,1275142629,0.6953,0.8638,0.3687,-9.39,65.85,47.62
990,1275147629,0.7070,0.8657,0.3857,-8.41,64.21,47.50
991,1275152629,0.7090,0.8784,0.4058,-7.20,62.26,47.44
992,1275157629,0.7061,0.8838,0.4106,-6.04,60.49,47.26
993,1275162671,0.7056,0.9033,0.4150,-5.18,58.84,47.32
994,1275167627,0.7095,0.9204,0.4180,-4.63,57.38,47.13
995,1275172627,0.7148,0.9214,0.4077,-4.57,55.91,46.77
