# skilleye imu stream v1
# device=xiao_esp32c6 imu=mpu6050 addr=0x68
# rate_hz=200 accel_range_g=16 gyro_range_dps=2000 dlpf_hz=94
# units: accel in g, gyro in deg/s, t_us in microseconds since boot (monotonic)
# no shared clock with the camera -- tap the racket once before each take
# so both recordings share a spike to align on
seq,t_us,ax,ay,az,gx,gy,gz
0,1517112630,0.7036,-0.5493,0.4751,15.98,-0.73,0.79
1,1517117634,0.7051,-0.5410,0.4702,8.78,-0.91,0.12
2,1517122631,0.7075,-0.5459,0.4678,1.95,-0.91,-0.37
3,1517127629,0.7026,-0.5483,0.4780,-4.02,-1.10,-0.73
4,1517132628,0.7046,-0.5488,0.4834,-8.60,-1.10,-0.91
5,1517137629,0.7080,-0.5444,0.4844,-11.40,-1.16,-0.91
6,1517142629,0.7163,-0.5518,0.4805,-12.07,-1.16,-0.67
7,1517147629,0.7202,-0.5547,0.4839,-10.61,-1.46,-0.24
8,1517152628,0.7236,-0.5659,0.4829,-7.38,-1.65,0.24
9,1517157629,0.7271,-0.5664,0.4849,-2.62,-1.83,1.10
10,1517162627,0.7358,-0.5669,0.4912,3.23,-1.95,2.01
11,1517167629,0.7417,-0.5630,0.4878,9.76,-2.20,2.87
12,1517172628,0.7500,-0.5659,0.4878,16.46,-2.32,3.96
13,1517177629,0.7476,-0.5703,0.4951,22.99,-2.56,4.94
14,1517182627,0.7437,-0.5610,0.4951,28.66,-2.74,5.91
15,1517187630,0.7490,-0.5601,0.5024,33.66,-2.87,6.83
16,1517192627,0.7505,-0.5601,0.5034,37.44,-2.99,7.62
17,1517197632,0.7485,-0.5615,0.4976,40.37,-2.93,8.29
18,1517202628,0.7544,-0.5635,0.4907,41.89,-3.11,8.90
19,1517207627,0.7451,-0.5669,0.4927,42.20,-3.29,9.39
20,1517212630,0.7417,-0.5615,0.4844,40.79,-3.54,9.39
21,1517217629,0.7422,-0.5610,0.4829,37.62,-3.84,9.39
22,1517222629,0.7402,-0.5601,0.4897,32.99,-3.78,9.15
23,1517227745,0.7471,-0.5547,0.4873,27.01,-3.90,8.84
24,1517232629,0.7510,-0.5527,0.4863,20.24,-3.96,8.41
25,1517237629,0.7500,-0.5513,0.4868,13.29,-3.96,7.93
26,1517242630,0.7515,-0.5557,0.4814,6.22,-4.09,7.56
27,1517247628,0.7490,-0.5547,0.4785,-0.30,-4.39,7.32
28,1517252629,0.7529,-0.5518,0.4702,-6.46,-4.51,7.07
29,1517257629,0.7500,-0.5542,0.4673,-12.01,-4.76,7.13
30,1517262629,0.7495,-0.5518,0.4639,-16.52,-4.94,7.32
31,1517267780,0.7495,-0.5557,0.4663,-20.00,-5.06,7.87
32,1517272629,0.7515,-0.5498,0.4663,-22.07,-5.12,8.60
33,1517277629,0.7563,-0.5459,0.4644,-22.50,-5.24,9.70
34,1517282629,0.7598,-0.5278,0.4580,-21.10,-5.12,11.10
35,1517287628,0.7588,-0.5225,0.4502,-17.99,-5.24,12.87
36,1517292630,0.7666,-0.5171,0.4526,-13.54,-5.37,14.88
37,1517297629,0.7910,-0.5308,0.4404,-7.93,-5.24,17.32
38,1517302629,0.8096,-0.5361,0.4331,-2.44,-5.43,19.82
39,1517307628,0.8145,-0.5386,0.4395,2.62,-5.43,22.50
40,1517312629,0.7959,-0.5347,0.4395,6.34,-5.73,24.76
41,1517317629,0.7759,-0.5469,0.4443,8.41,-5.73,26.71
42,1517322629,0.7681,-0.5532,0.4517,8.35,-5.73,28.23
43,1517327629,0.7661,-0.5537,0.4526,6.77,-5.73,29.33
44,1517332627,0.7563,-0.5625,0.4546,3.84,-5.85,30.06
45,1517337666,0.7476,-0.5728,0.4512,-0.06,-5.79,30.43
46,1517342628,0.7324,-0.5806,0.4521,-4.57,-5.73,30.43
47,1517347627,0.7236,-0.5908,0.4517,-9.33,-5.91,30.18
48,1517352627,0.7183,-0.6030,0.4521,-14.09,-5.98,29.82
49,1517357629,0.7168,-0.6074,0.4541,-18.60,-6.04,29.27
50,1517362629,0.7036,-0.6230,0.4590,-22.87,-6.22,28.66
51,1517367627,0.6909,-0.6304,0.4575,-26.52,-6.34,27.99
52,1517372629,0.6885,-0.6353,0.4658,-29.33,-6.22,27.13
53,1517377628,0.6851,-0.6372,0.4648,-31.04,-6.40,26.28
54,1517382629,0.6851,-0.6523,0.4692,-31.40,-6.52,25.37
55,1517387629,0.6982,-0.6626,0.4663,-30.49,-6.71,24.45
56,1517392628,0.7065,-0.6753,0.4614,-28.60,-6.77,23.66
57,1517397629,0.7075,-0.6924,0.4629,-25.85,-7.01,22.87
58,1517402627,0.7012,-0.7031,0.4639,-22.62,-7.44,21.95
59,1517407630,0.6973,-0.7178,0.4785,-19.39,-7.74,20.67
60,1517412722,0.6899,-0.7271,0.4746,-16.28,-8.05,19.45
61,1517417629,0.6851,-0.7349,0.4829,-13.29,-8.23,17.99
62,1517422629,0.6802,-0.7407,0.4854,-10.61,-8.54,16.40
63,1517427629,0.6792,-0.7456,0.4839,-7.99,-8.90,14.57
64,1517432628,0.6855,-0.7471,0.4868,-5.30,-9.45,12.74
65,1517437627,0.6885,-0.7544,0.4844,-2.50,-9.88,10.91
66,1517442629,0.6899,-0.7554,0.4873,0.37,-10.18,8.90
67,1517447627,0.6958,-0.7598,0.4775,3.05,-10.73,6.95
68,1517452629,0.6992,-0.7578,0.4819,5.55,-11.10,5.00
69,1517457631,0.7026,-0.7627,0.4868,7.62,-11.71,2.93
70,1517462628,0.7065,-0.7603,0.4829,9.45,-12.07,0.91
71,1517467629,0.7007,-0.7607,0.4839,10.85,-12.50,-1.16
72,1517472627,0.6987,-0.7588,0.4893,11.77,-12.93,-3.23
73,1517477627,0.7031,-0.7563,0.4883,12.32,-13.17,-5.24
74,1517482630,0.7129,-0.7505,0.4902,12.56,-13.48,-7.38
75,1517487672,0.7119,-0.7485,0.4834,12.68,-13.72,-9.39
76,1517492629,0.7178,-0.7446,0.4849,12.80,-14.09,-11.40
77,1517497628,0.7295,-0.7388,0.4771,12.99,-14.39,-13.23
78,1517502629,0.7427,-0.7324,0.4756,13.05,-14.63,-14.88
79,1517507629,0.7485,-0.7236,0.4883,13.23,-14.76,-16.46
80,1517512629,0.7471,-0.7202,0.4810,13.60,-15.00,-17.74
81,1517517628,0.7485,-0.7134,0.4824,13.90,-15.06,-19.02
82,1517522630,0.7583,-0.7007,0.4844,14.57,-15.00,-20.12
83,1517527627,0.7646,-0.6973,0.4824,15.37,-15.06,-21.16
84,1517532629,0.7700,-0.6836,0.4810,16.52,-14.94,-21.83
85,1517537629,0.7749,-0.6768,0.4810,18.05,-14.94,-22.50
86,1517542627,0.7871,-0.6626,0.4736,19.94,-14.88,-22.80
87,1517547629,0.7944,-0.6548,0.4746,21.77,-14.88,-23.11
88,1517552629,0.7939,-0.6411,0.4707,23.60,-14.76,-23.23
89,1517557629,0.7935,-0.6279,0.4688,25.24,-14.82,-23.17
90,1517562627,0.7847,-0.6274,0.4722,26.52,-14.57,-23.17
91,1517567627,0.7886,-0.6167,0.4683,27.38,-14.33,-23.11
92,1517572629,0.7910,-0.6128,0.4668,27.62,-14.27,-22.87
93,1517577629,0.7861,-0.6021,0.4663,27.38,-14.21,-22.74
94,1517582629,0.7720,-0.5933,0.4473,26.59,-14.02,-22.50
95,1517587628,0.7676,-0.5815,0.4395,25.43,-14.15,-22.07
96,1517592629,0.7803,-0.5679,0.4360,23.60,-14.09,-21.77
97,1517597629,0.7842,-0.5601,0.4326,21.22,-14.15,-21.22
98,1517602629,0.7876,-0.5449,0.4282,18.29,-14.09,-20.79
99,1517607628,0.7827,-0.5322,0.4160,14.88,-14.15,-20.12
100,1517612629,0.7793,-0.5239,0.4150,11.04,-14.09,-19.27
101,1517617627,0.7798,-0.5112,0.4062,7.01,-13.90,-18.29
102,1517622630,0.7803,-0.4951,0.4009,2.99,-13.66,-17.01
103,1517627629,0.7778,-0.4863,0.4038,-1.04,-13.48,-15.98
104,1517632629,0.7783,-0.4761,0.3926,-4.76,-13.17,-14.51
105,1517637628,0.7778,-0.4673,0.3887,-8.05,-12.62,-12.93
106,1517642630,0.7817,-0.4565,0.3848,-11.10,-12.26,-11.10
107,1517647629,0.7876,-0.4580,0.3818,-13.78,-12.01,-9.21
108,1517652629,0.7866,-0.4653,0.3848,-16.28,-11.46,-7.26
109,1517657627,0.7700,-0.4707,0.3813,-18.23,-11.04,-5.43
110,1517662629,0.7568,-0.4702,0.3906,-19.94,-10.49,-3.48
111,1517667630,0.7456,-0.4692,0.3843,-21.10,-10.00,-1.95
112,1517672629,0.7354,-0.4756,0.3853,-21.71,-9.57,-0.30
113,1517677628,0.7251,-0.4746,0.3950,-21.59,-9.09,1.10
114,1517682629,0.7271,-0.4810,0.3921,-20.61,-8.78,2.44
115,1517687629,0.7256,-0.4819,0.3892,-18.84,-8.54,3.78
116,1517692629,0.7144,-0.4946,0.3901,-16.65,-8.29,4.94
117,1517697628,0.7070,-0.4990,0.3960,-13.96,-7.80,6.16
118,1517702629,0.7036,-0.5049,0.3975,-10.85,-7.62,7.26
119,1517707629,0.7148,-0.5063,0.3926,-7.74,-7.20,8.41
120,1517712629,0.7192,-0.5117,0.3906,-4.33,-7.01,9.45
121,1517717628,0.7065,-0.5186,0.3901,-1.16,-6.71,10.49
122,1517722629,0.7114,-0.5210,0.3916,1.52,-6.40,11.46
123,1517727629,0.7295,-0.5352,0.3936,3.48,-6.16,12.32
124,1517732630,0.7393,-0.5469,0.3965,4.57,-6.04,13.23
125,1517737629,0.7339,-0.5518,0.3955,4.88,-5.73,13.96
126,1517742627,0.7280,-0.5610,0.3970,4.63,-5.79,14.45
127,1517747627,0.7368,-0.5713,0.3975,3.84,-5.73,14.82
128,1517752629,0.7461,-0.5918,0.3936,2.74,-5.79,15.12
129,1517757631,0.7505,-0.6074,0.3940,1.34,-5.79,15.06
130,1517762628,0.7349,-0.6216,0.3911,-0.30,-6.10,14.88
131,1517767627,0.7236,-0.6411,0.3965,-2.01,-6.28,14.39
132,1517772629,0.7251,-0.6538,0.3989,-3.78,-6.59,13.84
133,1517777631,0.7314,-0.6660,0.4121,-5.06,-6.89,12.87
134,1517782628,0.7534,-0.6836,0.4165,-5.79,-7.20,12.01
135,1517787629,0.7754,-0.6997,0.4141,-5.79,-7.62,10.85
136,1517792629,0.7856,-0.7168,0.4185,-5.24,-8.17,9.63
137,1517797629,0.7935,-0.7402,0.4185,-4.33,-8.78,8.11
138,1517802628,0.8164,-0.7725,0.4258,-3.35,-9.57,6.28
139,1517807629,0.8452,-0.8096,0.4331,-2.50,-10.30,3.96
140,1517812627,0.8569,-0.8394,0.4414,-2.62,-11.16,1.04
141,1517817630,0.8218,-0.8843,0.4536,-4.02,-12.26,-2.80
142,1517822628,0.7720,-0.9282,0.4653,-6.89,-13.11,-7.38
143,1517827629,0.7573,-0.9644,0.4800,-10.79,-13.84,-12.68
144,1517832629,0.7642,-0.9961,0.4917,-15.24,-14.70,-18.66
145,1517837629,0.7690,-1.0234,0.5024,-19.51,-15.37,-25.37
146,1517842628,0.7578,-1.0518,0.5083,-22.87,-16.22,-32.32
147,1517847627,0.7495,-1.0801,0.5146,-24.39,-16.89,-39.82
148,1517852629,0.7485,-1.0913,0.5166,-23.60,-17.56,-47.32
149,1517857629,0.7549,-1.0977,0.5166,-20.18,-18.35,-55.00
150,1517862629,0.7617,-1.1030,0.5142,-14.39,-19.09,-62.62
151,1517867631,0.7637,-1.1118,0.5098,-6.71,-20.12,-70.24
152,1517872628,0.7759,-1.1094,0.5073,2.13,-20.91,-77.87
153,1517877629,0.7788,-1.1006,0.5098,11.28,-22.07,-85.37
154,1517882627,0.7715,-1.0923,0.5229,20.12,-22.93,-92.87
155,1517887629,0.7690,-1.0723,0.5107,28.29,-23.78,-100.30
156,1517892628,0.7803,-1.0503,0.5132,35.43,-24.76,-107.74
157,1517897629,0.7803,-1.0259,0.5083,41.46,-25.79,-115.06
158,1517902627,0.7676,-0.9976,0.4912,46.10,-26.71,-122.13
159,1517907629,0.7573,-0.9624,0.4785,49.27,-27.74,-129.15
160,1517912628,0.7549,-0.9282,0.4683,50.98,-28.41,-135.67
161,1517917630,0.7554,-0.8740,0.4531,51.28,-29.15,-141.77
162,1517922627,0.7744,-0.8140,0.4316,50.61,-29.39,-147.56
163,1517927629,0.7886,-0.7593,0.4155,48.90,-29.57,-152.74
164,1517932629,0.8027,-0.6963,0.3950,46.04,-29.82,-157.44
165,1517937719,0.8105,-0.6279,0.3853,42.13,-29.63,-161.46
166,1517942629,0.8296,-0.5625,0.3691,37.87,-29.45,-164.94
167,1517947629,0.8423,-0.4985,0.3511,33.05,-28.84,-167.50
168,1517952629,0.8569,-0.4355,0.3311,28.11,-27.93,-169.45
169,1517957628,0.8740,-0.3906,0.3164,23.23,-26.89,-170.73
170,1517962630,0.8857,-0.3364,0.3096,18.54,-25.61,-171.28
171,1517967629,0.8770,-0.2773,0.3013,14.27,-24.09,-171.10
172,1517972630,0.8618,-0.2227,0.3042,10.61,-22.13,-170.37
173,1517977627,0.8477,-0.1772,0.2969,7.80,-19.94,-168.90
174,1517982629,0.8521,-0.1304,0.2876,6.34,-17.62,-166.83
175,1517987629,0.8799,-0.0859,0.2705,5.91,-15.18,-163.96
176,1517992629,0.8896,-0.0479,0.2573,6.77,-12.80,-160.49
177,1517997628,0.8823,-0.0112,0.2441,8.72,-10.55,-156.40
178,1518002629,0.8960,0.0161,0.2437,11.40,-8.17,-151.65
179,1518007629,0.9102,0.0464,0.2412,14.57,-5.85,-146.40
180,1518012629,0.9272,0.0688,0.2485,17.68,-3.78,-140.73
181,1518017628,0.9360,0.0776,0.2627,20.85,-1.77,-134.63
182,1518022629,0.9229,0.1157,0.2515,24.21,0.30,-128.48
183,1518027627,0.9126,0.1328,0.2646,27.56,2.07,-122.32
184,1518032629,0.8872,0.1509,0.2437,31.28,3.60,-116.22
185,1518037630,0.8516,0.1680,0.2192,35.12,4.94,-110.06
186,1518042629,0.8540,0.1768,0.2124,38.84,5.85,-103.90
187,1518047628,0.8530,0.2012,0.2124,41.65,6.34,-97.62
188,1518052629,0.8394,0.2227,0.2271,43.23,7.01,-91.59
189,1518057629,0.8467,0.2300,0.2280,43.23,7.74,-85.49
190,1518062629,0.8550,0.2339,0.2358,41.95,8.35,-79.57
191,1518067627,0.8667,0.2446,0.2480,39.76,9.09,-73.41
192,1518072630,0.8677,0.2456,0.2446,36.95,9.88,-67.50
193,1518077629,0.8643,0.2417,0.2417,33.72,10.55,-61.52
194,1518082629,0.8574,0.2495,0.2456,30.12,11.16,-55.73
195,1518087628,0.8467,0.2510,0.2607,26.10,11.71,-50.06
196,1518092629,0.8345,0.2378,0.2661,21.71,12.20,-44.57
197,1518097629,0.8379,0.2188,0.2803,16.59,12.50,-39.15
198,1518102629,0.8477,0.1909,0.3042,11.46,12.87,-34.02
199,1518107628,0.8433,0.1787,0.3140,6.16,13.11,-29.15
200,1518112629,0.7979,0.1768,0.3125,1.46,13.11,-24.70
201,1518117627,0.7676,0.1572,0.3228,-2.93,12.74,-20.85
202,1518122630,0.7520,0.1416,0.3442,-6.65,12.56,-17.38
203,1518127629,0.7412,0.1299,0.3579,-9.33,12.32,-14.45
204,1518132629,0.7363,0.1001,0.3726,-10.61,11.83,-11.52
205,1518137628,0.7412,0.0879,0.3892,-10.55,11.34,-8.90
206,1518142630,0.7422,0.0801,0.3926,-8.78,10.85,-6.46
207,1518147629,0.7378,0.0679,0.3965,-5.24,10.12,-4.21
208,1518152629,0.7383,0.0430,0.4004,-0.49,9.21,-2.01
209,1518157627,0.7529,0.0342,0.4126,5.12,8.41,0.18
210,1518162629,0.7632,0.0205,0.4175,10.98,7.50,2.26
211,1518167630,0.7754,-0.0107,0.4219,16.52,6.10,4.27
212,1518172629,0.8022,-0.0391,0.4370,20.55,4.70,6.28
213,1518177628,0.8154,-0.0562,0.4614,22.62,3.29,7.87
214,1518182630,0.8042,-0.0508,0.4731,22.26,1.71,8.96
215,1518187628,0.7788,-0.0547,0.4917,19.70,0.24,9.27
216,1518192629,0.7729,-0.0688,0.5049,15.37,-1.34,8.90
217,1518197632,0.7856,-0.0889,0.5181,10.12,-2.99,8.35
218,1518202628,0.8096,-0.1079,0.5161,4.70,-4.70,7.74
219,1518207629,0.8145,-0.1216,0.5103,-0.49,-6.59,6.83
220,1518212627,0.7993,-0.1187,0.5137,-5.06,-8.35,5.98
221,1518217629,0.7949,-0.1128,0.5142,-8.90,-10.00,4.70
222,1518222628,0.8110,-0.1250,0.5273,-11.10,-11.52,3.60
223,1518227630,0.8438,-0.1362,0.5303,-11.59,-13.11,2.74
224,1518232627,0.8608,-0.1343,0.5342,-10.00,-14.39,2.07
225,1518237629,0.8540,-0.1323,0.5269,-6.22,-15.61,1.59
226,1518242629,0.8569,-0.1353,0.5166,-0.43,-16.77,1.16
227,1518247627,0.8901,-0.1489,0.5063,7.01,-18.11,1.10
228,1518252629,0.9336,-0.1631,0.4932,14.94,-19.33,1.34
229,1518257627,0.9590,-0.1631,0.4873,22.13,-20.67,1.59
230,1518262629,0.9692,-0.1611,0.4790,27.32,-21.95,1.77
231,1518267722,0.9688,-0.1523,0.4790,29.82,-22.99,1.52
232,1518272629,0.9702,-0.1484,0.4731,29.51,-24.02,1.04
233,1518277629,0.9814,-0.1436,0.4565,26.77,-24.76,0.24
234,1518282630,0.9980,-0.1494,0.4429,21.95,-25.55,-0.55
235,1518287628,1.0107,-0.1460,0.4355,15.61,-26.28,-1.34
236,1518292629,1.0107,-0.1294,0.4321,8.23,-26.89,-2.32
237,1518297629,1.0005,-0.1162,0.4243,0.24,-27.07,-3.29
238,1518302629,0.9951,-0.1138,0.4336,-6.89,-26.95,-4.39
239,1518307628,1.0010,-0.1240,0.4180,-12.20,-26.89,-5.24
240,1518312629,1.0112,-0.1201,0.4077,-14.70,-26.77,-5.73
241,1518317627,1.0063,-0.1240,0.4028,-14.02,-26.40,-5.98
242,1518322629,0.9810,-0.1152,0.3936,-10.61,-26.16,-6.22
243,1518327630,0.9614,-0.1040,0.3936,-4.88,-25.79,-6.34
244,1518332627,0.9404,-0.0874,0.3853,2.62,-25.49,-6.28
245,1518337629,0.9229,-0.0645,0.3745,11.46,-25.18,-6.04
246,1518342629,0.9033,-0.0400,0.3667,21.16,-24.88,-5.67
247,1518347627,0.8892,-0.0181,0.3467,30.98,-24.45,-5.06
248,1518352629,0.8711,0.0107,0.3296,40.37,-23.90,-4.15
249,1518357629,0.8628,0.0332,0.3105,48.66,-23.41,-2.93
250,1518362629,0.8574,0.0620,0.2886,55.12,-22.80,-1.28
251,1518367628,0.8472,0.0942,0.2705,58.90,-22.07,0.49
252,1518372630,0.8188,0.1299,0.2607,59.45,-21.40,2.38
253,1518377629,0.8091,0.1699,0.2529,56.71,-20.43,4.27
254,1518382629,0.7886,0.2148,0.2427,51.22,-19.45,6.52
255,1518387856,0.7808,0.2471,0.2256,44.02,-18.05,8.90
256,1518392629,0.7749,0.2798,0.2197,35.49,-16.59,11.83
257,1518397627,0.7744,0.3135,0.2090,26.71,-14.88,15.18
258,1518402629,0.7637,0.3545,0.1997,18.48,-13.05,19.27
259,1518407630,0.7593,0.3838,0.1846,10.91,-11.04,23.90
260,1518412629,0.7578,0.4146,0.1616,4.45,-8.90,29.33
261,1518417628,0.7559,0.4478,0.1553,-1.22,-6.89,35.49
262,1518422629,0.7637,0.4683,0.1602,-5.98,-4.57,42.38
263,1518427629,0.7734,0.4805,0.1626,-10.18,-2.01,50.12
264,1518432629,0.7998,0.4731,0.1855,-13.35,0.67,58.72
265,1518437628,0.8389,0.4517,0.1997,-15.18,3.48,68.11
266,1518442630,0.8340,0.4619,0.1890,-14.63,6.10,78.11
267,1518447629,0.7773,0.4897,0.1670,-10.91,8.54,88.23
268,1518452629,0.7368,0.4849,0.1445,-4.33,10.30,98.29
269,1518457628,0.7222,0.4707,0.1440,4.27,12.01,108.66
270,1518462629,0.7539,0.4438,0.1504,13.66,13.90,119.45
271,1518467629,0.7666,0.4258,0.1509,22.87,15.61,130.18
272,1518472629,0.7554,0.4087,0.1646,30.98,17.32,141.16
273,1518477628,0.7612,0.3857,0.1665,37.44,19.15,151.95
274,1518482630,0.7988,0.3374,0.1836,41.34,21.04,162.68
275,1518487629,0.8350,0.2915,0.1953,42.20,22.93,173.41
276,1518492629,0.8403,0.2646,0.2017,39.63,24.70,183.66
277,1518497628,0.8286,0.2275,0.2173,33.35,26.46,193.29
278,1518502629,0.8315,0.1792,0.2461,23.72,28.05,202.32
279,1518507629,0.8330,0.1245,0.2622,11.10,29.21,210.67
280,1518512630,0.8145,0.0850,0.2808,-3.05,30.24,218.60
281,1518517628,0.7866,0.0396,0.2935,-17.68,30.85,225.67
282,1518522629,0.7510,-0.0186,0.3057,-31.28,30.91,232.38
283,1518527629,0.7417,-0.0981,0.3149,-43.23,30.37,238.84
284,1518532629,0.7856,-0.1963,0.3223,-52.99,29.33,244.94
285,1518537628,0.8198,-0.2812,0.3213,-60.85,27.56,250.67
286,1518542629,0.8311,-0.3545,0.3179,-67.13,25.06,255.43
287,1518547629,0.8105,-0.4272,0.3071,-72.26,21.83,258.84
288,1518552630,0.7588,-0.4995,0.3159,-76.95,17.74,260.37
289,1518557627,0.6929,-0.5806,0.3403,-81.28,13.29,259.82
290,1518562629,0.7900,-2.5415,0.6665,-84.27,7.93,254.88
291,1518567734,0.8394,-8.8779,0.3379,-26.34,3.17,153.60
292,1518572629,1.3140,-5.7383,0.2124,-11.46,-8.35,88.96
293,1518577629,0.9463,-3.4141,0.7358,-30.55,-7.01,50.30
294,1518582629,0.7671,-1.1118,0.3574,-52.80,-2.74,21.10
295,1518587627,0.7954,0.0903,-0.0435,-66.46,-1.16,-1.83
296,1518592629,0.8276,0.1152,0.3408,-70.30,-9.27,-16.83
297,1518598041,0.8540,-0.7690,0.7593,-70.49,-12.32,-25.55
298,1518602629,0.8599,-1.7993,0.5024,-70.18,-11.65,-31.46
299,1518607629,0.8540,-2.1831,0.3081,-68.35,-14.94,-36.83
300,1518612629,0.8110,-1.8018,0.6133,-63.78,-18.05,-43.60
301,1518617629,0.7954,-1.0449,0.7056,-56.46,-19.02,-52.38
302,1518622627,0.7964,-0.4478,0.4224,-46.40,-16.77,-61.95
303,1518627629,0.8096,-0.3511,0.3354,-35.37,-18.17,-71.40
304,1518632629,0.7920,-0.7236,0.5854,-24.45,-21.04,-79.63
305,1518637629,0.7988,-1.2275,0.6108,-14.21,-20.37,-86.71
306,1518642627,0.8540,-1.5273,0.4106,-4.39,-20.00,-92.93
307,1518647629,0.8970,-1.4463,0.4448,5.24,-20.73,-99.02
308,1518652629,0.9043,-1.0928,0.6104,14.82,-19.88,-105.73
309,1518657629,0.8906,-0.7212,0.5396,24.15,-18.84,-112.50
310,1518662627,0.8862,-0.5439,0.3848,33.11,-18.84,-119.02
311,1518667627,0.8765,-0.5933,0.4443,41.22,-18.84,-124.88
312,1518672629,0.8608,-0.7866,0.5342,47.56,-18.11,-130.00
313,1518677970,0.8628,-0.9375,0.4487,52.01,-17.56,-134.21
314,1518682629,0.8721,-0.9194,0.3506,54.39,-17.80,-138.17
315,1518687629,0.8584,-0.7461,0.4106,54.63,-17.50,-141.95
316,1518692630,0.8442,-0.5078,0.4497,52.74,-16.40,-145.61
317,1518697628,0.8462,-0.3198,0.3569,49.45,-15.85,-149.02
318,1518702638,0.8638,-0.2534,0.3062,45.18,-15.30,-151.52
319,1518707629,0.8813,-0.2954,0.3789,40.49,-14.27,-153.23
320,1518712630,0.8872,-0.3560,0.3857,36.10,-12.93,-154.09
321,1518717628,0.8950,-0.3652,0.2979,32.74,-11.89,-154.21
322,1518722629,0.8843,-0.2876,0.2656,30.55,-11.22,-153.60
323,1518727629,0.8755,-0.1616,0.3081,29.27,-10.18,-152.56
324,1518732629,0.8652,-0.0459,0.2886,28.54,-9.15,-151.04
325,1518737628,0.8638,0.0239,0.2319,28.05,-8.41,-148.78
326,1518742649,0.8516,0.0386,0.2290,27.68,-7.62,-146.04
327,1518747629,0.8335,0.0283,0.2705,27.26,-6.40,-142.56
328,1518752630,0.8203,0.0371,0.2437,26.95,-5.12,-138.66
329,1518757651,0.8218,0.0771,0.2051,26.95,-4.09,-134.09
330,1518762629,0.8345,0.1602,0.2188,26.95,-2.99,-129.21
331,1518767629,0.8325,0.2441,0.2373,26.95,-1.59,-123.60
332,1518772629,0.8218,0.3262,0.2173,26.71,-0.06,-117.44
333,1518777628,0.8101,0.3896,0.1948,25.91,1.34,-110.73
334,1518782629,0.8037,0.4258,0.2134,25.00,3.05,-103.48
335,1518787629,0.7896,0.4438,0.2280,23.78,4.82,-95.73
336,1518792629,0.7783,0.4731,0.2202,22.44,6.65,-87.20
337,1518797627,0.7759,0.5234,0.2178,21.71,8.48,-77.87
338,1518802628,0.7651,0.5845,0.2319,21.95,10.55,-68.05
339,1518807631,0.7495,0.6304,0.2310,23.35,12.62,-57.38
340,1518812628,0.7271,0.6675,0.2095,26.34,14.45,-46.10
341,1518817629,0.7197,0.6958,0.1953,30.55,16.16,-34.15
342,1518822627,0.7095,0.6982,0.2139,35.55,17.80,-21.77
343,1518827629,0.6938,0.7104,0.2168,40.85,19.39,-8.96
344,1518832628,0.6729,0.7217,0.2012,46.04,20.98,4.02
345,1518837629,0.6577,0.7275,0.1982,50.43,22.32,17.44
346,1518842789,0.6602,0.7358,0.2119,53.41,23.90,30.73
347,1518847629,0.6636,0.7412,0.2012,54.70,25.43,43.96
348,1518852629,0.6343,0.7285,0.1841,53.90,26.77,56.95
349,1518857629,0.6206,0.7065,0.1802,51.10,28.11,69.63
350,1518862627,0.6147,0.6855,0.1772,45.79,29.15,82.32
351,1518867629,0.6025,0.6694,0.1602,37.87,30.12,94.27
352,1518872629,0.6069,0.6533,0.1709,27.93,31.10,106.04
353,1518877629,0.6133,0.6328,0.1787,16.16,31.95,117.44
354,1518882627,0.6167,0.6133,0.1807,3.78,32.56,128.60
355,1518887629,0.6235,0.5840,0.1650,-8.90,33.17,139.82
356,1518892629,0.6348,0.5425,0.1670,-20.91,33.11,150.91
357,1518897629,0.6509,0.4956,0.1689,-32.01,33.11,162.13
358,1518902627,0.6562,0.4478,0.1782,-41.95,32.80,173.41
359,1518907629,0.6680,0.3950,0.1880,-50.55,32.32,184.63
360,1518912628,0.6729,0.3452,0.2002,-57.56,31.46,195.73
361,1518917629,0.6714,0.2837,0.2178,-62.80,30.73,206.71
362,1518922627,0.6772,0.2134,0.2329,-66.40,29.94,217.44
363,1518927629,0.6777,0.1455,0.2446,-68.35,29.02,228.11
364,1518932628,0.6841,0.0688,0.2466,-69.02,27.99,238.05
365,1518937629,0.6846,-0.0176,0.2598,-68.90,26.71,247.62
366,1518942628,0.6987,-0.1152,0.2690,-68.96,25.37,256.40
367,1518947946,0.7266,-0.2100,0.2842,-69.57,23.90,264.21
368,1518952630,0.7666,-0.2920,0.3032,-71.10,22.44,270.67
369,1518957629,0.7891,-0.3496,0.3198,-73.96,20.67,275.55
370,1518962628,0.7495,-0.3862,0.3286,-77.32,18.96,278.11
371,1518967629,0.6680,-0.4512,0.3320,-80.67,16.95,278.17
372,1518972627,1.3276,-5.1919,1.3984,-74.21,12.50,267.93
373,1518977627,0.9463,-6.9775,0.9087,20.79,8.35,153.72
374,1518982629,1.0498,-4.7549,-0.1528,31.40,5.73,94.39
375,1518987628,0.7666,-3.3149,0.4346,7.99,5.12,59.45
376,1518992629,0.6714,-1.4912,0.7188,-17.80,9.27,33.84
377,1518997627,0.8174,-0.3555,0.1626,-32.68,16.65,14.09
378,1519002704,0.9028,-0.1221,0.0024,-38.48,13.11,1.04
379,1519007628,0.8081,-0.5898,0.6387,-40.12,7.56,-7.32
380,1519012629,0.7217,-1.2676,0.7197,-41.71,8.23,-12.87
381,1519017629,0.7134,-1.6216,0.2109,-43.96,7.93,-16.65
382,1519022629,0.7168,-1.4390,0.2490,-46.34,4.39,-20.73
383,1519027628,0.7295,-0.9258,0.6387,-48.78,5.43,-25.67
384,1519032629,0.7627,-0.4463,0.4937,-50.61,6.89,-31.16
385,1519037629,0.7959,-0.2690,0.1270,-52.07,5.61,-36.34
386,1519042630,0.7920,-0.4351,0.2720,-54.33,4.45,-40.85
387,1519047778,0.7886,-0.7832,0.5571,-58.05,5.79,-44.39
388,1519052627,0.8140,-1.0571,0.3701,-63.05,7.01,-47.20
389,1519057629,0.8188,-1.0767,0.1602,-69.27,6.34,-49.76
390,1519062630,0.7915,-0.8643,0.3496,-76.16,6.89,-52.56
391,1519067629,0.7822,-0.5850,0.4985,-83.48,9.09,-55.61
392,1519072628,0.8130,-0.4053,0.2891,-90.24,10.30,-58.35
393,1519077637,0.8350,-0.4092,0.1865,-96.52,10.18,-60.55
394,1519082629,0.8325,-0.5454,0.3813,-102.01,11.34,-62.01
395,1519087630,0.8325,-0.6875,0.4399,-107.01,12.99,-62.56
396,1519092627,0.8506,-0.7427,0.2534,-111.34,13.29,-62.62
397,1519097628,0.8579,-0.6519,0.2227,-114.94,13.17,-62.44
398,1519102630,0.8379,-0.4961,0.3735,-117.93,13.72,-62.32
399,1519107629,0.8184,-0.3550,0.3628,-120.67,14.33,-62.13
400,1519112629,0.8149,-0.2979,0.2061,-123.29,13.90,-61.65
401,1519117628,0.8013,-0.3223,0.2197,-126.22,13.17,-60.85
402,1519122631,0.7832,-0.3950,0.3467,-129.76,13.05,-59.70
403,1519127627,0.7793,-0.4419,0.3135,-133.66,12.74,-58.41
404,1519132629,0.7891,-0.4297,0.2100,-138.05,11.71,-56.89
405,1519137628,0.7964,-0.3428,0.2842,-142.68,10.98,-55.55
406,1519142629,0.7925,-0.2393,0.3750,-147.44,10.61,-54.39
407,1519147628,0.7979,-0.1724,0.3354,-152.07,10.37,-53.54
408,1519152629,0.8081,-0.1616,0.2686,-156.46,9.27,-52.56
409,1519157629,0.8115,-0.2163,0.3413,-160.85,8.41,-51.40
410,1519163134,0.7998,-0.1929,0.4009,-165.91,7.62,-49.88
411,1519167630,0.7988,-0.2905,0.3613,-169.39,7.13,-48.60
412,1519172629,0.8022,-0.2690,0.3218,-173.05,5.67,-47.01
413,1519177629,0.7939,-0.2236,0.3799,-176.46,4.15,-45.49
414,1519182629,0.8003,-0.1909,0.3989,-179.51,2.93,-43.90
415,1519187628,0.8174,-0.1943,0.3354,-182.44,0.85,-42.01
416,1519192629,0.8462,-0.2300,0.3208,-184.94,-1.65,-39.82
417,1519197631,0.8848,-0.2812,0.3887,-186.89,-3.72,-37.32
418,1519202629,0.9268,-0.3237,0.3950,-188.23,-5.85,-34.63
419,1519207627,0.9478,-0.3213,0.3247,-189.02,-8.54,-31.83
420,1519212627,0.9453,-0.2876,0.3228,-189.02,-11.40,-29.15
421,1519217627,0.9390,-0.2583,0.3657,-188.72,-14.09,-26.77
422,1519222629,0.9546,-0.1987,0.3403,-187.99,-16.40,-24.33
423,1519227629,0.9692,-0.1885,0.3311,-187.74,-18.96,-22.44
424,1519232627,0.9531,-0.3057,0.3784,-187.74,-20.98,-20.00
425,1519237629,0.9277,-0.3965,0.4014,-187.26,-22.56,-16.95
426,1519242629,0.9160,-0.4189,0.3604,-185.79,-24.45,-13.48
427,1519247836,0.9277,-0.3706,0.3452,-183.05,-26.65,-10.24
428,1519252629,0.9624,-0.2959,0.3760,-179.15,-28.48,-7.38
429,1519257628,0.9902,-0.2354,0.3965,-174.09,-30.12,-5.12
430,1519262629,1.0034,-0.2178,0.3569,-168.11,-31.89,-2.93
431,1519267629,0.9990,-0.2446,0.3389,-162.01,-33.72,-0.98
432,1519272629,0.9878,-0.2686,0.3521,-155.91,-35.37,1.16
433,1519277628,0.9736,-0.2910,0.3271,-149.94,-37.07,2.93
434,1519282627,0.9546,-0.3135,0.2983,-143.05,-39.27,5.06
435,1519287630,0.9395,-0.3105,0.2690,-138.48,-40.85,6.65
436,1519293103,0.9326,-0.3335,0.2280,-131.59,-43.35,9.02
437,1519297630,0.9346,-0.3057,0.2051,-126.77,-44.82,10.49
438,1519302629,0.9424,-0.3325,0.1455,-120.91,-46.95,12.50
439,1519307629,0.9297,-0.3838,0.1567,-115.06,-49.27,14.57
440,1519312628,0.9146,-0.4023,0.1587,-109.33,-50.98,17.07
441,1519317629,0.9165,-0.3892,0.1260,-103.23,-52.68,19.21
442,1519322629,0.9233,-0.3833,0.0605,-97.56,-54.76,21.04
443,1519327629,0.9248,-0.3276,0.1118,-92.93,-56.65,22.68
444,1519332628,0.9175,-0.3042,0.1724,-88.66,-57.68,24.21
445,1519337629,0.8843,-0.2671,0.1416,-84.39,-57.93,25.30
446,1519342629,0.8896,-0.3813,0.0884,-80.06,-58.41,26.77
447,1519347629,0.8916,-0.3716,0.0913,-75.61,-58.90,28.17
448,1519352628,0.9141,-0.4106,0.0933,-71.28,-59.39,29.70
449,1519357629,0.9028,-0.4106,0.0513,-67.01,-59.88,31.28
450,1519362629,0.8857,-0.4062,0.0029,-62.62,-60.24,32.80
451,1519367630,0.8760,-0.3984,-0.0327,-58.05,-61.10,34.21
452,1519373026,0.8755,-0.4043,-0.0386,-53.35,-61.52,35.55
453,1519377629,0.8765,-0.4058,-0.0688,-48.54,-62.13,36.71
454,1519382629,0.8828,-0.4204,-0.0918,-43.90,-62.80,37.80
455,1519387629,0.8818,-0.4370,-0.1074,-39.45,-63.29,38.60
456,1519392627,0.8794,-0.4302,-0.1221,-35.43,-63.54,39.27
457,1519397627,0.8755,-0.4243,-0.1533,-31.71,-63.84,39.51
458,1519402630,0.8750,-0.4209,-0.1592,-28.41,-63.84,39.76
459,1519407733,0.8682,-0.4351,-0.1445,-25.98,-63.29,39.57
460,1519412627,0.8530,-0.4707,-0.1582,-24.27,-62.26,39.33
461,1519417627,0.8696,-0.4692,-0.1440,-23.48,-60.98,38.96
462,1519422627,0.8745,-0.4868,-0.1763,-23.54,-59.39,38.29
463,1519427628,0.8540,-0.4858,-0.2207,-24.51,-57.80,37.44
464,1519432699,0.8267,-0.5156,-0.2295,-26.28,-56.10,36.34
465,1519437629,0.8008,-0.5649,-0.3994,-29.33,-54.39,35.12
466,1519442631,0.8271,-0.5435,-0.4229,-38.54,-51.71,33.41
467,1519447628,0.8086,-0.5107,-0.4214,-50.98,-47.32,31.28
468,1519452628,0.8174,-0.5405,-0.5845,-64.63,-43.41,28.84
469,1519457627,0.7856,-0.5684,-0.5767,-79.21,-39.82,26.10
470,1519462627,0.7295,-0.5439,-0.4131,-94.21,-35.30,23.23
471,1519467627,0.7363,-0.5952,-0.3911,-108.11,-30.67,20.24
472,1519472629,0.7646,-0.5747,-0.5010,-120.55,-27.01,17.44
473,1519477661,0.7949,-0.5566,-0.4468,-130.98,-23.90,14.57
474,1519482627,0.7925,-0.6016,-0.3398,-139.88,-20.18,12.26
475,1519487627,0.7954,-0.6250,-0.4170,-147.74,-16.83,10.30
476,1519492627,0.7725,-0.5771,-0.4805,-154.27,-14.51,8.72
477,1519497627,0.7686,-0.5220,-0.3828,-158.29,-12.07,7.62
478,1519502627,0.7637,-0.5176,-0.3330,-160.61,-9.63,6.83
479,1519507630,0.7705,-0.4893,-0.3110,-161.22,-7.93,6.40
480,1519512629,0.7744,-0.4551,-0.3760,-159.82,-6.65,6.10
481,1519517629,0.7803,-0.4321,-0.3091,-157.32,-5.43,5.85
482,1519522627,0.7979,-0.4014,-0.2778,-154.02,-4.15,5.85
483,1519527629,0.8223,-0.3623,-0.3408,-150.18,-3.66,5.91
484,1519532656,0.8345,-0.3369,-0.3647,-146.83,-3.78,6.04
485,1519537628,0.8550,-0.3169,-0.2983,-144.09,-3.78,5.91
486,1519542627,0.8374,-0.3379,-0.2656,-141.77,-3.41,5.98
487,1519547627,0.7866,-0.3779,-0.3115,-140.49,-3.60,6.34
488,1519552628,0.7310,-0.4019,-0.3193,-140.24,-3.84,6.77
489,1519557630,0.7065,-0.3838,-0.2842,-141.34,-3.96,7.32
490,1519562627,0.6772,-0.3506,-0.2793,-143.72,-3.96,7.44
491,1519567627,0.6792,-0.3252,-0.3325,-146.52,-4.27,7.32
492,1519572629,0.6816,-0.3164,-0.3501,-149.57,-4.51,7.20
493,1519577627,0.6855,-0.3345,-0.3379,-153.11,-4.70,7.01
494,1519582629,0.7012,-0.3926,-0.3970,-156.83,-4.88,6.95
495,1519587627,0.7183,-0.4414,-0.4839,-160.55,-5.43,7.13
496,1519592628,0.7290,-0.4360,-0.5073,-163.35,-6.28,7.32
497,1519597629,0.7476,-0.3965,-0.4365,-163.72,-6.52,7.38
498,1519602629,0.7607,-0.3213,-0.4932,-161.46,-6.65,7.80
499,1519607629,0.7856,-0.1807,-0.5396,-157.13,-6.77,7.74
500,1519612628,0.7915,-0.1392,-0.5322,-150.85,-6.83,7.13
501,1519617629,0.8110,-0.1387,-0.5449,-142.07,-6.89,6.77
502,1519622627,0.8496,-0.1450,-0.5845,-131.10,-7.26,6.83
503,1519627630,0.8823,-0.1597,-0.6123,-118.41,-7.50,7.20
504,1519632629,0.9258,-0.1934,-0.6699,-104.82,-8.60,7.99
505,1519637628,0.9048,-0.1714,-0.6250,-91.65,-10.00,8.78
506,1519642629,0.9082,-0.1782,-0.5889,-79.21,-11.28,9.27
507,1519647628,0.9263,-0.2163,-0.5332,-67.87,-12.32,9.63
508,1519652629,0.9551,-0.2495,-0.5044,-57.26,-13.11,9.94
509,1519657628,0.9800,-0.2744,-0.5386,-47.01,-13.90,10.24
510,1519662629,0.9688,-0.1899,-0.5249,-37.20,-14.63,10.12
511,1519667629,0.9546,-0.1719,-0.4810,-27.87,-15.12,9.15
512,1519672628,0.9600,-0.1738,-0.4727,-19.15,-14.82,8.11
513,1519677629,0.9424,-0.1436,-0.5166,-11.34,-14.39,7.13
514,1519682627,0.9233,-0.1118,-0.5630,-4.63,-13.90,6.28
515,1519687630,0.9121,-0.1187,-0.5850,0.43,-13.17,5.43
516,1519692629,0.9126,-0.1411,-0.6108,4.21,-12.38,4.51
517,1519697629,0.9072,-0.1377,-0.6250,5.18,-11.65,3.96
518,1519702627,0.9009,-0.1187,-0.6382,4.94,-10.85,3.23
519,1519707629,0.8936,-0.1099,-0.6562,3.48,-9.70,2.38
520,1519712629,0.8926,-0.1201,-0.6807,1.22,-8.78,1.34
521,1519717629,0.8989,-0.1460,-0.6934,-1.52,-7.68,0.30
522,1519722627,0.9048,-0.1445,-0.7056,-4.88,-6.40,-0.37
523,1519727630,0.9023,-0.1353,-0.6812,-9.15,-5.12,-1.10
524,1519732629,0.9102,-0.1782,-0.6265,-13.72,-3.05,-1.40
525,1519737627,0.9175,-0.1997,-0.6465,-17.93,-0.73,-1.22
526,1519742628,0.9150,-0.2432,-0.6758,-21.89,1.71,-0.55
527,1519747629,0.9307,-0.2388,-0.6909,-25.79,4.09,1.16
528,1519752630,0.9595,-0.1514,-0.7012,-29.27,6.28,2.68
529,1519757629,0.9595,-0.1538,-0.7061,-32.38,7.93,3.84
530,1519762628,0.9312,-0.2051,-0.6924,-35.24,9.21,4.82
531,1519767629,0.9341,-0.1987,-0.6792,-37.50,9.94,5.43
532,1519772630,0.9424,-0.1860,-0.6934,-38.90,9.88,5.18
533,1519777629,0.9521,-0.1982,-0.6455,-39.33,9.15,4.51
534,1519782627,0.8950,-0.1958,-0.6094,-38.35,8.72,3.66
535,1519787629,0.8262,-0.1738,-0.6055,-36.52,8.54,2.93
536,1519792627,0.8252,-0.1328,-0.6431,-35.24,8.48,2.44
537,1519797629,0.8350,-0.0864,-0.6973,-34.33,8.41,1.83
538,1519802628,0.8125,-0.0518,-0.6934,-33.48,8.60,1.40
539,1519807629,0.7666,-0.0249,-0.6802,-32.74,8.78,1.46
540,1519812628,0.8159,-0.0835,-0.7222,-32.56,9.09,1.95
541,1519817629,0.8584,-0.1235,-0.7661,-32.68,9.27,2.38
542,1519822628,0.8208,-0.1372,-0.8057,-34.33,9.39,2.56
543,1519827629,0.8735,-0.1177,-0.8252,-38.29,9.09,2.80
544,1519832630,0.9307,-0.0762,-0.7822,-42.74,8.96,2.74
545,1519837629,0.9424,-0.0845,-0.7021,-47.38,9.21,2.50
546,1519842628,0.9092,-0.1270,-0.7119,-52.26,9.15,1.89
547,1519847629,0.8848,-0.1880,-0.7583,-57.50,8.66,1.16
548,1519852628,0.8701,-0.2261,-0.7603,-63.41,7.99,0.43
549,1519857629,0.8740,-0.2422,-0.7378,-70.98,7.38,-0.55
550,1519862628,0.8853,-0.2266,-0.7261,-79.15,6.83,-1.52
551,1519867629,0.8940,-0.2324,-0.7422,-88.29,5.85,-2.68
552,1519872629,0.8853,-0.2305,-0.7339,-97.99,5.12,-3.84
553,1519877628,0.8687,-0.2251,-0.7222,-107.56,4.57,-5.06
554,1519882629,0.8511,-0.2241,-0.7036,-116.46,4.02,-6.40
555,1519887627,0.8545,-0.2144,-0.7036,-124.02,3.66,-7.80
556,1519892628,0.8574,-0.1934,-0.6919,-129.82,3.48,-9.39
557,1519897629,0.8525,-0.1709,-0.6924,-133.66,3.29,-11.16
558,1519902629,0.8506,-0.1562,-0.7144,-135.79,2.99,-13.23
559,1519907628,0.8477,-0.1621,-0.7363,-137.13,2.56,-15.30
560,1519912629,0.8608,-0.1714,-0.7529,-137.56,1.71,-17.32
561,1519917629,0.8735,-0.1733,-0.7671,-137.20,1.04,-19.33
562,1519922628,0.8691,-0.1758,-0.8013,-135.67,-0.12,-21.40
563,1519927629,0.8647,-0.1743,-0.7734,-132.32,-1.65,-23.54
564,1519932628,0.8447,-0.1987,-0.6768,-129.09,-2.74,-25.73
565,1519937629,0.8223,-0.2373,-0.6372,-126.83,-2.99,-27.68
566,1519942628,0.8125,-0.2485,-0.6533,-125.73,-3.17,-29.27
567,1519947629,0.8062,-0.2383,-0.6880,-125.98,-3.78,-30.67
568,1519952628,0.7988,-0.2026,-0.7041,-127.32,-4.33,-31.95
569,1519957629,0.7842,-0.1763,-0.6958,-129.70,-4.82,-33.35
570,1519962628,0.7725,-0.1636,-0.7007,-133.48,-5.73,-34.57
571,1519967629,0.7749,-0.1616,-0.7231,-138.48,-6.65,-35.85
572,1519972663,0.7725,-0.1685,-0.7139,-144.09,-7.62,-37.01
573,1519977631,0.7666,-0.1660,-0.7197,-149.94,-8.66,-38.11
574,1519982628,0.7563,-0.1675,-0.7314,-155.30,-9.51,-39.15
575,1519987629,0.7598,-0.1514,-0.7388,-159.76,-10.30,-40.06
576,1519992628,0.7617,-0.1362,-0.7310,-162.99,-10.73,-40.91
577,1519997629,0.7549,-0.1138,-0.7241,-165.12,-11.40,-42.01
578,1520002628,0.7651,-0.0996,-0.7358,-166.71,-11.71,-43.11
579,1520007629,0.7603,-0.0947,-0.7441,-167.62,-12.26,-44.15
580,1520012628,0.7549,-0.0913,-0.7339,-168.29,-12.99,-45.18
581,1520017629,0.7441,-0.0820,-0.7212,-169.45,-13.84,-46.10
582,1520022628,0.7363,-0.0708,-0.7012,-170.91,-14.70,-46.89
583,1520027629,0.7231,-0.0581,-0.6812,-172.74,-15.61,-47.74
584,1520032631,0.7085,-0.0410,-0.6660,-175.43,-16.89,-48.41
585,1520037629,0.6982,-0.0273,-0.6724,-177.13,-17.56,-48.78
586,1520042630,0.6992,-0.0195,-0.6675,-178.96,-18.72,-49.02
587,1520047629,0.7031,-0.0156,-0.6616,-180.37,-20.06,-49.09
588,1520052628,0.7095,0.0078,-0.6753,-181.34,-21.40,-49.02
589,1520057629,0.7114,0.0215,-0.6714,-181.46,-22.87,-48.90
590,1520062630,0.7026,0.0220,-0.6675,-180.98,-24.21,-48.90
591,1520067629,0.6978,0.0176,-0.6694,-179.63,-25.61,-48.84
592,1520072628,0.7036,0.0127,-0.6777,-177.68,-27.32,-48.54
593,1520077630,0.7012,0.0137,-0.6699,-175.24,-28.90,-48.17
594,1520082628,0.7095,0.0161,-0.6748,-172.80,-30.73,-47.68
595,1520087629,0.7109,0.0093,-0.6523,-170.30,-32.68,-47.07
596,1520092628,0.7114,0.0254,-0.6299,-167.99,-34.76,-46.40
597,1520097629,0.7358,0.0464,-0.6250,-165.91,-36.65,-45.73
598,1520102627,0.7476,0.0547,-0.6143,-164.27,-38.66,-45.24
599,1520107630,0.7402,0.0630,-0.6025,-162.99,-40.98,-44.63
600,1520112628,0.7222,0.0654,-0.5952,-162.38,-43.29,-44.09
601,1520117630,0.7056,0.0811,-0.5898,-162.62,-45.24,-43.78
602,1520122630,0.7061,0.1157,-0.5835,-163.66,-47.01,-43.54
603,1520127629,0.6699,0.1279,-0.5972,-165.37,-49.09,-43.29
604,1520132628,0.6504,0.1323,-0.5767,-167.93,-51.10,-43.23
605,1520137629,0.6372,0.1567,-0.5605,-170.91,-52.99,-43.11
606,1520142628,0.6255,0.1729,-0.5527,-173.84,-55.00,-43.05
607,1520147629,0.6309,0.1802,-0.5298,-177.07,-56.83,-43.23
608,1520152628,0.6401,0.1772,-0.5200,-180.30,-58.90,-43.29
609,1520157629,0.6484,0.1890,-0.5166,-183.29,-60.79,-43.29
610,1520162628,0.6372,0.2031,-0.5298,-186.22,-62.68,-43.41
611,1520167629,0.6279,0.2129,-0.5205,-188.96,-64.94,-43.23
612,1520172628,0.6177,0.2212,-0.5137,-191.71,-66.95,-43.05
613,1520177629,0.6172,0.2256,-0.5015,-194.09,-69.09,-42.80
614,1520182630,0.6167,0.2358,-0.4893,-196.10,-71.22,-42.32
615,1520187629,0.6099,0.2437,-0.4756,-197.62,-73.29,-41.77
616,1520193076,0.6040,0.2607,-0.4688,-198.29,-75.85,-41.04
617,1520197631,0.5991,0.2676,-0.4785,-197.74,-77.56,-40.24
618,1520202627,0.6025,0.2959,-0.4771,-195.79,-79.76,-39.39
619,1520207628,0.6045,0.3179,-0.4849,-192.50,-81.71,-38.35
620,1520213095,0.5840,0.3218,-0.4810,-187.13,-83.90,-37.26
621,1520217629,0.5669,0.3374,-0.4805,-182.87,-85.12,-36.52
622,1520222630,0.5518,0.3506,-0.4858,-177.01,-86.71,-35.43
623,1520227629,0.5562,0.3564,-0.4854,-170.61,-88.23,-34.51
624,1520232628,0.5581,0.3652,-0.4893,-164.39,-89.70,-33.48
625,1520237629,0.5605,0.3765,-0.4912,-158.84,-91.10,-32.38
626,1520242629,0.5405,0.3794,-0.4961,-154.76,-92.26,-31.65
627,1520247627,0.5244,0.3853,-0.4893,-152.13,-93.72,-30.91
628,1520252629,0.5117,0.3936,-0.4746,-151.22,-95.30,-30.43
629,1520257629,0.5054,0.3926,-0.4702,-151.95,-96.89,-30.00
630,1520262627,0.5020,0.3901,-0.4619,-154.15,-98.23,-29.88
631,1520267629,0.5049,0.3970,-0.4468,-157.44,-99.51,-29.57
632,1520272628,0.5137,0.4038,-0.4395,-161.04,-100.79,-29.39
633,1520277629,0.5190,0.3975,-0.4380,-164.57,-101.95,-29.33
634,1520282630,0.5259,0.3926,-0.4502,-167.68,-103.35,-29.09
635,1520287629,0.5186,0.4072,-0.4409,-170.18,-104.63,-28.78
636,1520292730,0.5093,0.4375,-0.4414,-171.89,-105.73,-28.66
637,1520297628,0.5190,0.4546,-0.4482,-172.74,-106.89,-28.23
638,1520302629,0.5249,0.4604,-0.4492,-172.99,-108.11,-27.93
639,1520307627,0.5220,0.4678,-0.4551,-173.35,-109.45,-27.32
640,1520312629,0.5229,0.4834,-0.4507,-173.66,-110.98,-26.71
641,1520317628,0.5142,0.5029,-0.4365,-174.09,-112.68,-26.04
642,1520322629,0.5005,0.5220,-0.4268,-174.70,-114.70,-25.18
643,1520327630,0.5005,0.5366,-0.4199,-175.18,-116.10,-24.57
644,1520332627,0.4961,0.5459,-0.4131,-175.55,-117.80,-23.84
645,1520337629,0.4810,0.5537,-0.4048,-175.55,-119.70,-23.11
646,1520342628,0.4595,0.5649,-0.4004,-175.24,-121.52,-22.32
647,1520347629,0.4448,0.5845,-0.3892,-174.27,-123.23,-21.52
648,1520352628,0.4331,0.5889,-0.3779,-172.80,-124.94,-20.98
649,1520357630,0.4238,0.5898,-0.3770,-170.73,-126.46,-20.37
650,1520362628,0.4067,0.5972,-0.3804,-168.48,-127.68,-19.51
651,1520367629,0.4014,0.5996,-0.3750,-166.04,-128.90,-18.96
652,1520372628,0.3936,0.5942,-0.3643,-163.72,-129.94,-18.23
653,1520377630,0.3779,0.5889,-0.3687,-161.71,-130.67,-17.68
654,1520382627,0.3545,0.5854,-0.3608,-159.94,-131.34,-17.26
655,1520387628,0.3413,0.5850,-0.3672,-158.35,-131.71,-16.83
656,1520392629,0.3311,0.5845,-0.3652,-156.77,-132.07,-16.65
657,1520397627,0.3203,0.5903,-0.3657,-155.49,-132.07,-16.52
658,1520402632,0.3198,0.5928,-0.3687,-154.33,-132.38,-16.40
659,1520407631,0.3247,0.6001,-0.3672,-153.35,-132.93,-16.34
660,1520412627,0.3174,0.6016,-0.3574,-152.80,-133.41,-16.28
661,1520417631,0.3135,0.6094,-0.3516,-152.44,-133.84,-16.40
662,1520422628,0.3228,0.6147,-0.3462,-152.32,-134.51,-16.34
663,1520427631,0.3252,0.6255,-0.3267,-152.50,-135.67,-16.46
664,1520432628,0.3247,0.6245,-0.3140,-152.68,-136.40,-16.40
665,1520437627,0.3149,0.6216,-0.3042,-152.99,-137.44,-16.34
666,1520442627,0.3169,0.6284,-0.2979,-152.93,-138.48,-16.28
667,1520447630,0.3232,0.6284,-0.2900,-152.07,-139.76,-16.16
668,1520452629,0.3271,0.6343,-0.2808,-150.98,-140.49,-16.22
669,1520457628,0.3135,0.6406,-0.2734,-149.57,-141.59,-16.04
670,1520462631,0.2930,0.6484,-0.2681,-148.23,-142.74,-16.16
671,1520467627,0.2773,0.6553,-0.2568,-147.50,-143.96,-16.46
672,1520472628,0.2690,0.6553,-0.2300,-147.13,-145.06,-16.65
673,1520477630,0.2705,0.6558,-0.2051,-147.80,-146.04,-17.01
674,1520482629,0.2822,0.6538,-0.2002,-148.78,-146.95,-17.38
675,1520487630,0.2881,0.6528,-0.2100,-149.63,-147.80,-17.93
676,1520492628,0.2842,0.6523,-0.2139,-149.82,-148.90,-18.29
677,1520497629,0.2588,0.6611,-0.2344,-148.78,-149.76,-18.78
678,1520502629,0.2461,0.6641,-0.2461,-146.04,-150.43,-19.09
679,1520507629,0.2437,0.6748,-0.2432,-142.38,-150.98,-19.51
680,1520512628,0.2373,0.6768,-0.2144,-139.76,-151.46,-20.06
681,1520517630,0.2227,0.6714,-0.1860,-139.45,-152.32,-20.73
682,1520522629,0.2227,0.6646,-0.1680,-140.79,-153.11,-21.71
683,1520527629,0.2241,0.6685,-0.1553,-142.50,-154.09,-22.93
684,1520532628,0.2188,0.6675,-0.1538,-143.78,-155.12,-24.09
685,1520537629,0.2129,0.6572,-0.1626,-144.02,-156.22,-25.37
686,1520542627,0.2134,0.6475,-0.1665,-143.41,-157.44,-26.22
687,1520547629,0.2271,0.6582,-0.1606,-141.77,-158.66,-27.07
688,1520552629,0.2300,0.6621,-0.1689,-139.02,-159.63,-27.80
689,1520557629,0.2173,0.6582,-0.1650,-135.67,-160.91,-28.54
690,1520562628,0.2051,0.6592,-0.1567,-131.71,-162.13,-29.15
691,1520567629,0.2075,0.6597,-0.1499,-127.38,-162.99,-29.51
692,1520572629,0.2231,0.6694,-0.1362,-122.62,-163.96,-29.88
693,1520577629,0.2285,0.6812,-0.1250,-117.56,-164.82,-30.24
694,1520582628,0.2227,0.6870,-0.1206,-112.44,-165.73,-30.61
695,1520587629,0.2100,0.6953,-0.1138,-107.62,-166.40,-31.04
696,1520592631,0.2007,0.7095,-0.1123,-103.11,-167.01,-31.40
697,1520597628,0.2031,0.7158,-0.0957,-99.27,-167.56,-31.95
698,1520602889,0.2046,0.7192,-0.0835,-95.85,-167.99,-32.80
699,1520607629,0.1982,0.7271,-0.0771,-94.51,-168.05,-33.48
700,1520613119,0.1709,0.7295,-0.0669,-93.48,-167.87,-34.45
701,1520617629,0.1558,0.7388,-0.0659,-93.17,-167.56,-35.43
702,1520622628,0.1509,0.7495,-0.0620,-93.05,-167.32,-36.59
703,1520627629,0.1504,0.7559,-0.0537,-92.87,-167.01,-38.05
704,1520632631,0.1553,0.7529,-0.0557,-92.56,-166.59,-39.33
705,1520637628,0.1489,0.7520,-0.0483,-92.07,-166.28,-40.73
706,1520642629,0.1411,0.7485,-0.0547,-91.40,-165.85,-42.07
707,1520647627,0.1465,0.7500,-0.0605,-90.30,-165.67,-43.35
708,1520652627,0.1582,0.7534,-0.0581,-88.41,-165.61,-44.57
709,1520657630,0.1636,0.7666,-0.0493,-85.85,-165.67,-45.61
710,1520662629,0.1694,0.7705,-0.0596,-82.99,-165.73,-46.71
711,1520667629,0.1812,0.7769,-0.0571,-79.76,-165.98,-47.74
712,1520672628,0.1865,0.7808,-0.0498,-76.59,-166.04,-48.66
713,1520677629,0.1880,0.7861,-0.0522,-73.29,-166.28,-49.45
714,1520682629,0.1924,0.7944,-0.0508,-70.18,-166.40,-50.06
715,1520687629,0.1880,0.8062,-0.0571,-67.26,-166.52,-50.85
716,1520692630,0.1816,0.8037,-0.0610,-64.57,-166.71,-51.46
717,1520697629,0.1680,0.8013,-0.0493,-62.20,-166.77,-51.89
718,1520702627,0.1870,0.8096,-0.0229,-59.88,-166.71,-52.13
719,1520707629,0.2109,0.8232,-0.0127,-57.74,-166.40,-52.26
720,1520712629,0.2231,0.8257,0.0015,-55.98,-165.91,-52.20
721,1520717629,0.2119,0.8296,0.0127,-54.27,-165.30,-52.01
722,1520722630,0.2031,0.8350,0.0132,-52.62,-164.57,-51.77
723,1520727629,0.2061,0.8330,0.0078,-51.04,-163.60,-51.52
724,1520732629,0.1997,0.8228,0.0029,-49.27,-162.74,-51.16
725,1520737629,0.1992,0.8193,0.0244,-47.56,-161.83,-50.67
726,1520742627,0.2031,0.8271,0.0347,-45.73,-160.61,-50.12
727,1520747629,0.2021,0.8271,0.0254,-43.54,-159.33,-49.70
728,1520752631,0.1953,0.8218,0.0181,-40.91,-158.11,-49.15
729,1520757628,0.1807,0.8081,0.0205,-37.99,-156.95,-48.60
730,1520762629,0.1831,0.8066,0.0210,-34.70,-155.55,-47.80
731,1520767627,0.1904,0.8105,0.0068,-31.04,-154.27,-47.01
732,1520772629,0.1885,0.8086,0.0068,-26.89,-152.87,-46.16
733,1520777628,0.1860,0.8086,0.0132,-22.56,-151.40,-45.18
734,1520782629,0.1924,0.8169,0.0107,-18.17,-149.70,-44.27
735,1520787628,0.1968,0.8276,0.0171,-13.84,-147.93,-43.29
736,1520792627,0.1934,0.8340,0.0078,-9.33,-146.04,-42.38
737,1520797631,0.1846,0.8462,-0.0029,-4.88,-144.27,-41.77
738,1520802629,0.1934,0.8423,-0.0195,0.00,-142.44,-40.79
739,1520807629,0.2095,0.8496,-0.0342,5.24,-140.73,-39.94
740,1520812628,0.2119,0.8589,-0.0464,10.67,-139.09,-39.09
741,1520817629,0.2070,0.8613,-0.0581,16.22,-137.50,-38.23
742,1520822630,0.2002,0.8604,-0.0674,21.46,-135.91,-37.07
743,1520827629,0.2061,0.8652,-0.0776,26.40,-134.27,-36.10
744,1520832627,0.2061,0.8604,-0.0664,30.67,-132.68,-34.94
745,1520837629,0.2031,0.8467,-0.0664,33.66,-130.73,-33.60
746,1520842629,0.2002,0.8687,-0.0732,35.73,-128.78,-32.26
747,1520847628,0.1909,0.8862,-0.0889,36.89,-126.77,-31.10
748,1520852629,0.1787,0.8794,-0.1030,37.13,-125.00,-29.94
749,1520857629,0.1699,0.8877,-0.1128,36.77,-123.11,-28.84
750,1520862629,0.1699,0.8950,-0.1064,36.28,-121.10,-27.62
751,1520867628,0.1748,0.8960,-0.0967,36.10,-119.09,-26.46
752,1520872629,0.1978,0.9023,-0.0952,36.46,-117.07,-25.06
753,1520877627,0.2036,0.9082,-0.1006,37.87,-115.12,-23.54
754,1520882629,0.2036,0.9053,-0.1123,40.37,-113.17,-21.83
755,1520887628,0.2144,0.9180,-0.1089,44.21,-111.28,-19.82
756,1520892627,0.2202,0.9224,-0.0962,49.02,-109.39,-17.74
757,1520897631,0.2207,0.9292,-0.0933,54.63,-107.56,-15.43
758,1520902629,0.2188,0.9312,-0.0903,60.43,-105.79,-13.05
759,1520907628,0.1992,0.9370,-0.0869,65.85,-103.90,-10.73
760,1520912629,0.1777,0.9463,-0.0879,70.49,-101.71,-8.48
761,1520917629,0.1772,0.9585,-0.1064,74.09,-99.82,-6.34
762,1520922629,0.1650,0.9565,-0.1274,76.04,-97.87,-4.33
763,1520927628,0.1499,0.9624,-0.1318,76.40,-95.98,-2.38
764,1520932629,0.1597,0.9683,-0.1431,75.67,-94.27,-0.79
765,1520937627,0.1489,0.9570,-0.1553,74.09,-92.32,0.98
766,1520942629,0.1582,0.9629,-0.1523,71.77,-90.67,2.56
767,1520947628,0.1733,0.9688,-0.1587,69.39,-89.02,4.09
768,1520952629,0.1802,0.9819,-0.1699,67.44,-87.32,5.37
769,1520957627,0.1924,0.9927,-0.1875,66.10,-86.22,6.71
770,1520962627,0.2007,1.0181,-0.1885,65.73,-85.06,7.74
771,1520967629,0.2012,1.0015,-0.1772,66.04,-83.90,8.78
772,1520972629,0.2256,1.0122,-0.1743,66.59,-82.93,9.94
773,1520977629,0.2485,1.0195,-0.1665,67.38,-81.65,11.22
774,1520982628,0.2407,1.0283,-0.1602,68.29,-80.55,12.62
775,1520987629,0.2300,1.0449,-0.1699,69.70,-79.45,13.90
776,1520992629,0.2046,1.0415,-0.1636,71.65,-78.41,15.30
777,1520997629,0.2173,1.0425,-0.1636,73.48,-77.38,16.95
778,1521002630,0.2529,1.0562,-0.1553,75.37,-76.34,18.66
779,1521007629,0.2529,1.0376,-0.1562,77.20,-75.30,20.43
780,1521012629,0.2344,1.0322,-0.1494,78.23,-74.51,22.56
781,1521017629,0.2588,1.0459,-0.1489,78.78,-73.72,24.82
782,1521022627,0.2358,1.0483,-0.1382,78.48,-72.68,27.50
783,1521027630,0.2134,1.0483,-0.1230,77.62,-71.95,29.27
784,1521032627,0.2109,1.0352,-0.1118,75.98,-71.04,31.46
785,1521038006,0.2007,1.0342,-0.0903,73.60,-69.88,34.27
786,1521042629,0.2026,1.0410,-0.0757,72.01,-68.84,36.10
787,1521047628,0.1973,1.0479,-0.0640,70.43,-67.68,38.29
788,1521052629,0.1875,1.0483,-0.0713,69.82,-66.52,40.49
789,1521057627,0.1689,1.0537,-0.0869,70.67,-65.43,42.68
790,1521062629,0.1733,1.0488,-0.0952,73.05,-64.63,45.06
791,1521067628,0.1997,1.0527,-0.0972,77.44,-64.15,47.80
792,1521072629,0.2310,1.0557,-0.1118,83.11,-63.84,50.73
793,1521077627,0.2529,1.0610,-0.1216,89.09,-63.84,54.02
794,1521082627,0.2700,1.0659,-0.1289,94.94,-63.96,57.32
795,1521087629,0.2954,1.0811,-0.1401,100.12,-64.33,60.85
796,1521092629,0.3140,1.0791,-0.1592,104.15,-64.63,64.27
797,1521097629,0.3057,1.0767,-0.1782,106.34,-65.18,67.56
798,1521102630,0.3008,1.0723,-0.1826,106.83,-65.73,70.79
799,1521107629,0.3066,1.0771,-0.1890,105.55,-66.40,73.78
800,1521112627,0.3003,1.0820,-0.2134,103.29,-67.07,76.59
801,1521117629,0.2891,1.0806,-0.2041,100.30,-67.74,79.33
802,1521122630,0.2861,1.0737,-0.1997,96.89,-68.11,81.83
803,1521127629,0.2866,1.0703,-0.1997,93.78,-68.29,84.45
804,1521132629,0.2910,1.0645,-0.2124,91.16,-68.41,87.07
805,1521137628,0.2837,1.0547,-0.2344,89.45,-68.48,90.12
806,1521142629,0.2764,1.0430,-0.2524,88.60,-68.60,93.11
807,1521147629,0.2729,1.0337,-0.2637,88.60,-68.54,95.98
808,1521152627,0.2837,1.0142,-0.2676,89.15,-68.60,99.02
809,1521157629,0.3032,1.0024,-0.2822,90.18,-68.17,102.20
810,1521162629,0.2979,0.9912,-0.2979,91.71,-67.80,105.18
811,1521167629,0.2886,0.9761,-0.3193,93.54,-67.44,108.29
812,1521172628,0.3140,0.9580,-0.3135,95.85,-66.95,111.34
813,1521177629,0.3457,0.9424,-0.3174,98.78,-66.16,114.45
814,1521182627,0.3555,0.9297,-0.3340,102.13,-65.37,117.80
815,1521187630,0.3481,0.9062,-0.3521,105.73,-64.51,121.04
816,1521192627,0.3374,0.8975,-0.3608,109.39,-63.60,124.27
817,1521197632,0.3389,0.8921,-0.3540,113.17,-62.44,127.38
818,1521203091,0.3481,0.8774,-0.3647,117.56,-60.91,131.04
819,1521207631,0.3643,0.8735,-0.3809,120.55,-60.00,133.41
820,1521212628,0.3745,0.8628,-0.4082,124.33,-58.48,136.28
821,1521217629,0.3789,0.8516,-0.4233,127.56,-57.20,139.02
822,1521222627,0.3677,0.8438,-0.4326,129.57,-55.67,141.59
823,1521227629,0.3706,0.8320,-0.4512,130.30,-54.21,144.09
824,1521232629,0.3623,0.8174,-0.4697,129.21,-52.56,146.16
825,1521237693,0.3662,0.8052,-0.4946,127.07,-50.85,148.11
826,1521242629,0.3638,0.7905,-0.5371,124.21,-49.39,150.12
827,1521247631,0.3677,0.7671,-0.5586,120.73,-47.99,151.95
828,1521252628,0.3799,0.7393,-0.5806,117.20,-46.83,153.90
829,1521257629,0.4102,0.7153,-0.5903,113.90,-45.67,155.98
830,1521262631,0.4453,0.6860,-0.5913,111.10,-44.39,158.66
831,1521267630,0.4390,0.6523,-0.5830,109.88,-43.60,160.43
832,1521272629,0.4492,0.6260,-0.5864,109.88,-42.38,162.62
833,1521277629,0.4775,0.5986,-0.5840,111.77,-41.04,164.88
834,1521282629,0.5073,0.5786,-0.5977,116.10,-39.94,167.38
835,1521287628,0.5073,0.5615,-0.6162,122.38,-38.35,169.82
836,1521292629,0.4819,0.5483,-0.6104,129.57,-36.89,172.26
837,1521297629,0.4624,0.5371,-0.5977,136.59,-35.00,174.21
838,1521302627,0.4634,0.5361,-0.5854,143.35,-32.80,175.85
839,1521307630,0.4609,0.5249,-0.5981,149.63,-30.37,177.32
840,1521312629,0.4409,0.5151,-0.6401,155.06,-27.93,178.60
841,1521317628,0.4243,0.4927,-0.6655,159.21,-25.55,179.88
842,1521322627,0.4292,0.4746,-0.6704,161.71,-23.29,181.16
843,1521327629,0.4692,0.4561,-0.6714,162.62,-21.16,182.74
844,1521332629,0.5142,0.4282,-0.6753,162.07,-18.90,184.21
845,1521337628,0.5293,0.4048,-0.7002,160.43,-17.01,185.67
846,1521342629,0.5015,0.3760,-0.7217,157.50,-15.06,187.07
847,1521347628,0.4814,0.3433,-0.7314,153.35,-13.54,188.17
848,1521352629,0.4946,0.3232,-0.7153,148.35,-11.71,189.27
849,1521357629,0.5176,0.3027,-0.7031,143.11,-9.70,190.18
850,1521362978,0.5229,0.2734,-0.6909,137.26,-6.83,191.16
851,1521367629,0.5098,0.2563,-0.7075,134.21,-4.88,191.83
852,1521372628,0.4907,0.2329,-0.7153,131.40,-2.56,192.56
853,1521377629,0.4829,0.2188,-0.7222,130.18,-0.43,193.48
854,1521382627,0.4951,0.2212,-0.7144,132.01,1.95,194.33
855,1521387629,0.5034,0.2178,-0.7236,135.85,4.39,195.30
856,1521392628,0.5073,0.2158,-0.7339,141.40,6.77,196.10
857,1521397629,0.4995,0.2217,-0.7305,147.93,9.15,197.01
858,1521402628,0.4800,0.2095,-0.7402,154.51,11.34,197.62
859,1521407629,0.4771,0.1826,-0.7451,160.30,13.48,198.35
860,1521412629,0.4907,0.1416,-0.7671,164.70,15.37,199.15
861,1521417629,0.5010,0.0835,-0.7749,167.26,17.07,200.18
862,1521422627,0.4922,0.0288,-0.7720,167.74,18.54,201.46
863,1521427629,0.4863,-0.0215,-0.7651,166.28,20.12,202.87
864,1521432627,0.4771,-0.0552,-0.7505,163.05,21.89,204.21
865,1521437631,0.4668,-0.0762,-0.7295,158.72,23.84,205.43
866,1521442628,0.4536,-0.0977,-0.6914,153.41,26.16,206.34
867,1521447629,0.4580,-0.1035,-0.6543,147.68,28.90,207.01
868,1521452628,0.4683,-0.0991,-0.6465,142.50,31.77,207.44
869,1521457629,0.4741,-0.0957,-0.6533,138.96,34.70,207.62
870,1521462627,0.4648,-0.0991,-0.6670,137.13,37.20,207.62
871,1521467629,0.4604,-0.1025,-0.6636,137.38,39.63,207.56
872,1521472629,0.4795,-0.1143,-0.6426,139.33,41.71,207.44
873,1521477629,0.5117,-0.1255,-0.6436,142.99,43.60,207.38
874,1521482627,0.5337,-0.1528,-0.6538,147.74,45.24,207.56
875,1521487629,0.5308,-0.1855,-0.6792,153.11,46.65,207.87
876,1521492628,0.5073,-0.2256,-0.7041,158.11,47.87,208.41
877,1521497629,0.4810,-0.2754,-0.7251,162.20,48.84,209.21
878,1521502628,0.4536,-0.3242,-0.7153,165.00,49.88,210.24
879,1521507629,0.4326,-0.3594,-0.7280,166.65,51.22,211.28
880,1521512629,0.4297,-0.3872,-0.7168,167.20,52.62,212.13
881,1521517629,0.4268,-0.3950,-0.6860,166.71,54.15,212.68
882,1521522627,0.4487,-0.3950,-0.6445,164.76,56.46,212.74
883,1521527627,0.4448,-0.3867,-0.6426,163.05,58.17,212.44
884,1521532627,0.4224,-0.4019,-0.6440,160.06,59.88,211.52
885,1521537627,0.3926,-0.4126,-0.6177,156.34,61.65,210.18
886,1521542628,0.3843,-0.4229,-0.5723,152.32,63.35,208.60
887,1521547629,0.3784,-0.4521,-0.5391,147.80,65.30,207.07
888,1521552628,0.3574,-0.4990,-0.5005,143.29,67.50,205.61
889,1521557629,0.3081,-0.5659,-0.4873,139.02,69.70,204.76
890,1521562905,0.2383,-0.6401,-0.5137,135.06,72.20,204.76
891,1521567768,0.2026,-0.6885,-0.5303,133.29,73.78,205.43
892,1521572627,0.2163,-0.6958,-0.5439,134.02,74.82,206.34
893,1521577629,0.2700,-0.6943,-0.5439,137.13,75.79,207.44
894,1521582628,0.3267,-0.6709,-0.5693,142.80,76.16,208.23
895,1521587629,0.3623,-0.6479,-0.5811,150.30,75.85,208.41
896,1521592627,0.3843,-0.6162,-0.5859,158.66,75.06,207.80
897,1521597749,0.4185,-0.6187,-0.5825,168.29,73.60,205.79
898,1521602628,0.4341,-0.6338,-0.5571,173.35,72.56,204.09
899,1521607690,0.4282,-0.6641,-0.4810,178.11,71.52,200.98
900,1521612629,0.4058,-0.6855,-0.4106,179.09,71.34,198.35
901,1521617629,0.3604,-0.7217,-0.3379,177.74,71.95,194.82
902,1521622628,0.2969,-0.7612,-0.2773,173.96,73.05,191.04
903,1521627629,0.1982,-0.8301,-0.2563,168.54,74.76,187.38
904,1521632627,0.0840,-0.9268,-0.2852,161.71,76.28,184.33
905,1521637629,-0.0029,-0.9937,-0.3169,153.84,76.95,182.07
906,1521642629,-0.0127,-1.0107,-0.3242,146.16,76.71,180.43
907,1521647629,0.0747,-1.0225,-0.3203,139.45,75.61,178.90
908,1521652627,0.2231,-1.0229,-0.3101,133.17,73.54,177.32
909,1521657629,0.3154,-1.0024,-0.2837,129.51,71.65,176.04
910,1521662628,0.4004,-0.9727,-0.2686,127.56,68.72,173.96
911,1521667629,0.4429,-0.9458,-0.2593,126.71,65.37,171.16
912,1521672627,0.4438,-0.9395,-0.2778,128.29,61.89,167.99
913,1521677629,0.4150,-0.9399,-0.2974,130.49,58.05,164.33
914,1521682628,0.3574,-0.9468,-0.2671,131.59,54.02,160.18
915,1521687629,0.3057,-0.9565,-0.2158,132.56,50.37,155.79
916,1521692627,0.2700,-0.9712,-0.1665,131.22,47.13,150.85
917,1521697629,0.2397,-0.9927,-0.1133,128.17,44.63,145.91
918,1521702628,0.2012,-1.0190,-0.0635,122.26,42.74,140.98
919,1521707629,0.1514,-1.0610,-0.0420,115.55,41.10,136.46
920,1521713045,0.0835,-1.1318,-0.0464,106.71,39.02,131.52
921,1521717630,0.0254,-1.1655,-0.0537,100.98,37.56,128.66
922,1521722629,-0.0312,-1.2085,-0.0625,94.63,35.49,125.55
923,1521727637,-0.0239,-1.2441,-0.0811,89.63,32.99,123.11
924,1521732627,0.0166,-1.2700,-0.0991,86.28,29.82,121.10
925,1521737629,0.0708,-1.2549,-0.0923,84.15,25.67,119.27
926,1521742629,0.1265,-1.2271,-0.0820,83.11,21.10,117.38
927,1521747629,0.2065,-1.1982,-0.0806,83.66,15.06,114.70
928,1521752629,0.2476,-1.1797,-0.0830,84.63,10.49,112.80
929,1521757629,0.2607,-1.1611,-0.0879,86.22,4.39,110.06
930,1521762629,0.2417,-1.1401,-0.0806,87.44,-1.71,107.13
931,1521767628,0.1919,-1.1279,-0.0464,87.68,-7.93,103.60
932,1521772628,0.1426,-1.1147,-0.0220,86.22,-14.94,99.09
933,1521777629,0.1104,-1.1060,-0.0161,84.15,-19.33,95.85
934,1521782628,0.0811,-1.1113,0.0005,80.12,-24.76,91.52
935,1521787629,0.0566,-1.1270,0.0127,74.57,-30.06,87.62
936,1521792627,0.0312,-1.1313,0.0166,66.52,-36.28,82.38
937,1521797629,0.0107,-1.1489,0.0220,60.79,-40.24,79.02
938,1521802629,-0.0093,-1.1743,0.0146,54.09,-44.94,75.30
939,1521807629,-0.0078,-1.1973,0.0151,47.99,-49.63,71.89
940,1521812629,-0.0054,-1.2139,0.0210,43.17,-53.90,69.09
941,1521817630,0.0039,-1.2222,0.0112,39.88,-58.17,66.52
942,1521822629,0.0103,-1.2266,0.0068,38.05,-62.32,64.33
943,1521827629,0.0176,-1.2354,-0.0044,37.80,-66.34,62.56
944,1521832629,0.0278,-1.2407,-0.0195,38.96,-70.37,61.22
945,1521837628,0.0371,-1.2388,-0.0474,41.04,-74.45,60.06
946,1521842627,0.0439,-1.2402,-0.0659,43.41,-78.60,58.96
947,1521847631,0.0342,-1.2437,-0.0767,45.98,-83.35,57.80
948,1521852740,0.0142,-1.2480,-0.0664,47.32,-87.07,56.77
949,1521857629,-0.0073,-1.2466,-0.0796,48.05,-89.76,55.85
950,1521862629,-0.0249,-1.2397,-0.0869,48.35,-93.35,54.51
951,1521867629,-0.0503,-1.2373,-0.1045,48.11,-97.01,53.29
952,1521872627,-0.0815,-1.2334,-0.0977,46.83,-100.85,51.83
953,1521877627,-0.1001,-1.2334,-0.0889,44.94,-104.88,50.43
954,1521882627,-0.1025,-1.2168,-0.0835,42.93,-108.78,49.21
955,1521887627,-0.0869,-1.2158,-0.0957,41.34,-113.05,47.99
956,1521892628,-0.0815,-1.2173,-0.1333,40.37,-117.62,46.89
957,1521897629,-0.0767,-1.2070,-0.1592,40.37,-122.20,45.61
958,1521902629,-0.0874,-1.1992,-0.1631,40.73,-127.56,43.78
959,1521907628,-0.1094,-1.2041,-0.1797,41.10,-130.61,42.26
960,1521912629,-0.1279,-1.2158,-0.2173,41.40,-134.02,40.67
961,1521917628,-0.1406,-1.2163,-0.2290,41.46,-137.07,38.84
962,1521922630,-0.1455,-1.2241,-0.2539,41.52,-140.00,36.65
963,1521927629,-0.1450,-1.2339,-0.2788,41.40,-141.71,35.18
964,1521932627,-0.1533,-1.2437,-0.2842,41.10,-143.84,33.17
965,1521937629,-0.1621,-1.2476,-0.2749,40.79,-145.37,31.46
966,1521942628,-0.1548,-1.2422,-0.2769,40.30,-146.34,30.18
967,1521947629,-0.1494,-1.2456,-0.2827,39.76,-147.68,28.60
968,1521952627,-0.1431,-1.2373,-0.2915,39.57,-149.21,26.89
969,1521957629,-0.1416,-1.2349,-0.2935,39.45,-150.30,25.85
970,1521962628,-0.1328,-1.2261,-0.3057,39.51,-151.77,24.57
971,1521967629,-0.1392,-1.2197,-0.2998,39.63,-153.35,23.23
972,1521972660,-0.1631,-1.2148,-0.3027,39.94,-154.76,21.46
973,1521977629,-0.1841,-1.2241,-0.3301,40.30,-155.67,20.12
974,1521982628,-0.2148,-1.2266,-0.3452,41.10,-156.89,18.35
975,1521987629,-0.2339,-1.2314,-0.3540,41.71,-157.32,17.13
976,1521992627,-0.2383,-1.2295,-0.3701,42.93,-157.68,15.55
977,1521997629,-0.2344,-1.2271,-0.3853,43.72,-157.93,14.45
978,1522002628,-0.2261,-1.2217,-0.3989,45.18,-158.35,13.17
979,1522007629,-0.2227,-1.2202,-0.3867,46.34,-158.54,12.44
980,1522012628,-0.2271,-1.2119,-0.3813,47.62,-158.72,11.59
981,1522017629,-0.2207,-1.2056,-0.3716,48.35,-159.15,11.22
982,1522022629,-0.2002,-1.1958,-0.3545,48.84,-159.88,10.79
983,1522027629,-0.1885,-1.1914,-0.3560,48.84,-160.55,10.55
984,1522032627,-0.1802,-1.1709,-0.3423,48.41,-161.40,10.00
985,1522037627,-0.1655,-1.1465,-0.3379,47.50,-162.26,9.45
986,1522042627,-0.1558,-1.1387,-0.3472,46.34,-163.17,8.72
987,1522047634,-0.1787,-1.1260,-0.3398,44.70,-164.39,7.80
988,1522052629,-0.2114,-1.1196,-0.3218,43.35,-164.94,6.71
989,1522057628,-0.2432,-1.1079,-0.3149,41.95,-165.30,5.67
990,1522062630,-0.2642,-1.1099,-0.3301,40.98,-165.49,4.70
991,1522067628,-0.2642,-1.1128,-0.3306,40.85,-165.37,4.27
992,1522072627,-0.2451,-1.1255,-0.3516,41.89,-165.24,3.90
993,1522077629,-0.2314,-1.1304,-0.3687,44.02,-165.30,3.84
994,1522082628,-0.2241,-1.1479,-0.3853,45.98,-165.43,4.09
995,1522087627,-0.2026,-1.1489,-0.3887,48.41,-165.37,4.57
996,1522092627,-0.2021,-1.1567,-0.3896,50.91,-165.00,5.12
997,1522097629,-0.2212,-1.1606,-0.3838,52.20,-164.33,5.43
998,1522102630,-0.2407,-1.1489,-0.3770,52.62,-163.48,5.61
999,1522107629,-0.2393,-1.1406,-0.3813,52.56,-162.56,5.55
1000,1522112629,-0.2295,-1.1343,-0.3853,52.32,-161.71,5.37
1001,1522117628,-0.2358,-1.1235,-0.3857,51.71,-160.98,5.00
1002,1522122629,-0.2471,-1.1104,-0.3765,51.10,-160.55,4.27
1003,1522127631,-0.2549,-1.0933,-0.3682,50.37,-160.43,3.66
1004,1522132628,-0.2642,-1.0850,-0.3740,49.51,-160.24,2.62
1005,1522137629,-0.2607,-1.0771,-0.3687,48.78,-160.24,1.59
1006,1522142627,-0.2715,-1.0747,-0.3467,48.48,-160.24,0.55
1007,1522147629,-0.2778,-1.0625,-0.3442,48.48,-159.76,-0.37
1008,1522152629,-0.2573,-1.0532,-0.3408,49.15,-159.63,-1.04
1009,1522157629,-0.2144,-1.0508,-0.3501,50.55,-159.57,-1.28
1010,1522162627,-0.2075,-1.0454,-0.3589,52.07,-160.00,-0.98
1011,1522167629,-0.2070,-1.0342,-0.3574,53.60,-160.79,-0.24
1012,1522172627,-0.2012,-1.0327,-0.3462,54.39,-161.52,0.61
1013,1522177631,-0.1948,-1.0435,-0.3193,54.02,-162.26,1.59
1014,1522182629,-0.2090,-1.0518,-0.3003,52.26,-162.99,2.68
1015,1522187629,-0.2261,-1.0513,-0.2788,49.45,-163.54,3.54
1016,1522192628,-0.2236,-1.0581,-0.2720,46.34,-163.84,4.09
1017,1522197631,-0.2217,-1.0645,-0.2627,43.54,-164.09,4.39
1018,1522202629,-0.2437,-1.0723,-0.2559,41.34,-164.02,4.45
1019,1522207629,-0.2603,-1.0596,-0.2480,40.00,-163.84,4.15
1020,1522212629,-0.2407,-1.0293,-0.2529,39.63,-163.60,3.35
1021,1522217628,-0.2163,-1.0234,-0.2744,40.67,-163.17,2.32
1022,1522222629,-0.2119,-1.0288,-0.2832,42.93,-162.68,1.28
1023,1522227630,-0.2295,-1.0332,-0.2988,45.67,-161.95,0.43
1024,1522232627,-0.2441,-1.0493,-0.3130,48.35,-161.34,-0.24
1025,1522237629,-0.2461,-1.0640,-0.3281,50.30,-160.67,-0.61
1026,1522242627,-0.2651,-1.0889,-0.3164,50.98,-159.88,-0.79
1027,1522247629,-0.2998,-1.1011,-0.2993,50.30,-159.09,-0.98
1028,1522252627,-0.3330,-1.1206,-0.2637,48.17,-158.35,-1.16
1029,1522257628,-0.3496,-1.1299,-0.2603,44.88,-157.74,-1.52
1030,1522262628,-0.3428,-1.1313,-0.2529,41.59,-157.50,-1.95
1031,1522267630,-0.2188,-1.2095,-0.6904,19.45,-154.27,-4.70
1032,1522272629,-0.0864,-1.2227,-1.4507,-53.84,-142.44,-12.56
1033,1522277628,-0.0864,-1.5747,-1.2979,-143.17,-127.38,-26.52
1034,1522282629,-0.1416,-1.2554,-0.5439,-166.34,-119.70,-38.66
1035,1522287629,-0.0996,-1.1416,-0.5161,-150.73,-116.46,-44.51
1036,1522292630,-0.0420,-1.1235,-0.4824,-128.23,-112.74,-48.78
1037,1522297628,-0.0205,-1.1309,-0.2939,-94.94,-109.82,-51.04
1038,1522302629,-0.0532,-1.0820,-0.1646,-50.85,-109.15,-50.30
1039,1522307629,-0.1172,-0.9736,-0.0928,-2.07,-111.10,-47.32
1040,1522312629,-0.1768,-0.8706,0.0229,49.82,-115.12,-42.80
1041,1522317628,-0.2383,-0.8735,0.1855,99.39,-120.12,-36.59
1042,1522322629,-0.2158,-0.8633,0.2842,140.24,-125.49,-29.21
1043,1522327629,-0.1689,-0.8716,0.2554,171.34,-131.65,-20.79
1044,1522332629,-0.1440,-0.8926,0.2456,190.98,-138.35,-12.38
1045,1522337628,-0.0967,-0.9019,0.2544,198.66,-144.63,-4.33
1046,1522342627,-0.0449,-0.9009,0.2324,195.73,-150.61,3.23
1047,1522347629,-0.0396,-0.8867,0.1558,183.48,-156.04,9.63
1048,1522352628,-0.0825,-0.8911,0.1089,163.84,-160.67,14.82
1049,1522357629,-0.1240,-0.9058,0.1011,138.90,-163.90,19.33
1050,1522362629,-0.1616,-0.9287,0.0459,110.73,-165.91,22.74
1051,1522367629,-0.2295,-0.9429,-0.0264,82.26,-167.13,25.12
1052,1522372865,-0.3154,-0.9561,-0.0703,55.61,-167.68,25.98
1053,1522377629,-0.3774,-0.9883,-0.0991,32.93,-167.56,26.04
1054,1522382628,-0.4292,-1.0298,-0.1572,15.85,-167.62,25.61
1055,1522387629,-0.4590,-1.0483,-0.1968,4.57,-167.74,24.63
1056,1522392629,-0.4214,-1.0552,-0.2017,-0.85,-167.62,23.05
1057,1522397629,-0.3267,-1.0825,-0.2065,-1.40,-167.07,21.10
1058,1522402627,-0.2515,-1.1187,-0.2070,1.71,-165.85,19.15
1059,1522407629,-0.2090,-1.1558,-0.1792,7.44,-163.66,17.07
1060,1522412628,-0.1592,-1.1821,-0.1260,14.70,-159.82,15.12
1061,1522417629,-0.0957,-1.2070,-0.1260,23.29,-155.06,13.48
1062,1522422628,-0.0640,-1.2129,-0.1436,32.99,-150.06,11.89
1063,1522427629,-0.0586,-1.2046,-0.1426,43.23,-144.76,10.49
1064,1522432629,-0.0591,-1.1973,-0.1274,53.54,-139.02,8.84
1065,1522437629,-0.0493,-1.1914,-0.1279,63.23,-133.66,7.32
1066,1522442627,-0.0498,-1.1943,-0.1318,71.71,-128.66,5.85
1067,1522447627,-0.0581,-1.1953,-0.1157,78.41,-124.15,4.33
1068,1522452635,-0.0732,-1.1982,-0.0967,83.23,-120.37,2.80
1069,1522457628,-0.0913,-1.1938,-0.0825,86.04,-117.50,1.28
1070,1522462630,-0.1123,-1.1807,-0.0747,87.13,-115.73,-0.55
1071,1522467628,-0.1255,-1.1577,-0.0435,86.28,-115.00,-2.50
1072,1522472629,-0.1328,-1.1182,-0.0142,84.02,-115.06,-4.94
1073,1522477629,-0.1333,-1.0820,0.0039,80.73,-116.16,-7.80
1074,1522482629,-0.1445,-1.0669,0.0020,76.34,-118.05,-10.67
1075,1522487628,-0.1670,-1.0425,0.0020,71.46,-120.61,-13.60
1076,1522492629,-0.1680,-1.0161,0.0396,65.79,-123.78,-16.16
1077,1522497629,-0.1699,-0.9980,0.0737,59.70,-126.71,-18.41
1078,1522502629,-0.1772,-0.9927,0.0815,53.54,-129.33,-20.18
1079,1522507628,-0.1421,-0.9844,0.0796,48.05,-132.07,-21.46
1080,1522512629,-0.1074,-0.9819,0.0776,43.72,-135.00,-22.26
1081,1522517629,-0.1025,-0.9756,0.1030,40.67,-137.68,-22.74
1082,1522522629,-0.1299,-0.9868,0.1357,38.41,-139.39,-22.99
1083,1522527628,-0.1646,-1.0049,0.1499,37.32,-140.79,-23.05
1084,1522532979,-0.2056,-1.0259,0.1577,37.50,-142.01,-22.99
1085,1522537689,-0.2246,-1.0396,0.1592,38.72,-143.23,-22.62
1086,1522542628,-0.2251,-1.0542,0.1680,40.73,-144.51,-22.38
1087,1522547629,-0.2158,-1.0542,0.1978,42.99,-146.04,-22.38
1088,1522552627,-0.1704,-1.0464,0.2241,45.61,-147.74,-22.62
1089,1522557629,-0.1196,-1.0410,0.2485,48.23,-149.45,-23.11
1090,1522562628,-0.0640,-1.0190,0.2534,50.67,-151.65,-23.54
1091,1522567629,0.0088,-1.0054,0.2393,53.05,-153.96,-24.27
1092,1522572627,0.0625,-1.0103,0.2036,55.12,-156.52,-24.57
1093,1522577629,0.0659,-1.0317,0.1680,56.71,-159.09,-24.63
1094,1522582628,0.0513,-1.0513,0.1450,57.38,-161.22,-24.57
1095,1522587629,0.0317,-1.0669,0.1216,57.07,-162.62,-24.70
1096,1522592627,0.0044,-1.0835,0.1123,55.67,-163.29,-24.94
1097,1522597629,-0.0298,-1.1001,0.0835,53.84,-162.93,-25.43
1098,1522602628,-0.0625,-1.1187,0.0532,51.89,-162.26,-26.34
1099,1522607629,-0.0864,-1.1421,0.0347,50.12,-161.28,-27.50
1100,1522612627,-0.1094,-1.1694,0.0371,48.54,-160.12,-28.96
1101,1522617629,-0.1504,-1.1880,0.0547,47.01,-158.78,-30.91
1102,1522622628,-0.1934,-1.2114,0.0859,46.04,-157.26,-33.05
1103,1522627629,-0.1987,-1.2290,0.1123,45.73,-155.67,-35.49
1104,1522632627,-0.1675,-1.2349,0.1318,46.16,-154.57,-37.80
1105,1522637627,-0.1123,-1.2271,0.1396,47.93,-153.66,-40.55
1106,1522642629,-0.0278,-1.2056,0.1484,50.67,-153.17,-43.29
1107,1522647628,0.0435,-1.1948,0.1382,54.57,-152.80,-45.79
1108,1522652629,0.0513,-1.1865,0.1338,58.84,-152.13,-47.93
1109,1522657628,0.0361,-1.1748,0.1440,63.11,-151.34,-49.63
1110,1522662629,0.0317,-1.1626,0.1426,67.01,-150.37,-50.91
1111,1522667630,0.0469,-1.1440,0.1250,70.18,-149.09,-51.89
1112,1522672629,0.0605,-1.1157,0.1250,72.56,-147.87,-52.68
1113,1522677628,0.0776,-1.0933,0.1162,73.84,-146.71,-53.29
1114,1522682630,0.0928,-1.0840,0.1064,73.96,-145.55,-53.78
1115,1522687629,0.1060,-1.0771,0.1201,72.62,-144.94,-54.15
1116,1522692627,0.0874,-1.0771,0.1489,70.18,-144.33,-54.51
1117,1522697629,0.0557,-1.0728,0.1738,66.83,-143.90,-54.94
1118,1522702629,0.0083,-1.0854,0.1948,62.93,-143.66,-55.61
1119,1522707628,-0.0234,-1.0933,0.1968,59.45,-143.72,-56.04
1120,1522712629,-0.0352,-1.0786,0.2236,56.71,-144.21,-56.83
1121,1522717628,-0.0195,-1.0698,0.2456,55.00,-144.88,-57.62
1122,1522722629,0.0234,-1.0645,0.2524,54.51,-145.55,-58.60
1123,1522727629,0.0630,-1.0659,0.2632,55.30,-146.28,-59.21
1124,1522732629,0.0981,-1.0547,0.2793,57.01,-147.01,-59.63
1125,1522737628,0.1475,-1.0244,0.2778,59.76,-147.50,-60.06
1126,1522742630,0.1978,-1.0088,0.2617,63.35,-147.80,-60.37
1127,1522747629,0.2422,-0.9985,0.2402,67.56,-147.99,-60.67
1128,1522752629,0.2671,-0.9893,0.2148,71.95,-147.93,-60.73
1129,1522757628,0.2808,-0.9746,0.2100,75.91,-147.93,-61.04
1130,1522762627,0.2783,-0.9766,0.1973,79.21,-147.56,-61.34
1131,1522767629,0.2651,-0.9927,0.1904,80.98,-146.89,-61.83
1132,1522772628,0.2490,-0.9971,0.1948,81.34,-145.98,-62.50
1133,1522777629,0.2334,-1.0020,0.2109,80.43,-145.00,-63.35
1134,1522782628,0.2192,-1.0161,0.2090,78.48,-143.90,-64.45
1135,1522787629,0.2090,-1.0488,0.1973,76.28,-142.93,-65.43
1136,1522792627,0.2041,-1.0684,0.1968,74.33,-141.95,-66.34
1137,1522797629,0.2090,-1.0781,0.1973,73.17,-141.46,-67.07
1138,1522802628,0.2217,-1.0815,0.2041,72.93,-140.73,-67.99
1139,1522807629,0.2412,-1.0947,0.2192,73.60,-140.24,-68.72
1140,1522812627,0.2524,-1.0972,0.2290,75.18,-139.51,-69.57
1141,1522817629,0.2573,-1.0996,0.2329,77.74,-138.96,-70.49
1142,1522822628,0.2705,-1.0962,0.2417,80.85,-138.60,-71.46
1143,1522827629,0.2939,-1.0874,0.2490,84.39,-138.23,-72.62
1144,1522832628,0.3208,-1.0762,0.2500,87.50,-137.93,-74.02
1145,1522837629,0.3467,-1.0669,0.2466,90.55,-138.11,-75.61
1146,1522842629,0.3740,-1.0620,0.2466,93.05,-138.17,-77.38
1147,1522847629,0.4058,-1.0542,0.2505,95.06,-138.35,-79.33
1148,1522852627,0.4336,-1.0454,0.2583,96.52,-138.60,-81.52
1149,1522857627,0.4521,-1.0415,0.2690,97.38,-139.02,-83.66
1150,1522862629,0.4590,-1.0376,0.2588,98.11,-139.21,-85.73
1151,1522867628,0.4619,-1.0356,0.2554,98.60,-139.63,-88.05
1152,1522872629,0.4434,-1.0371,0.2446,99.39,-140.06,-90.37
1153,1522877628,0.4443,-1.0342,0.2271,100.43,-140.79,-92.68
1154,1522882629,0.4575,-1.0112,0.2212,101.71,-141.40,-95.12
1155,1522887630,0.4639,-0.9976,0.1992,103.17,-141.71,-97.93
1156,1522892629,0.4707,-0.9893,0.1797,105.06,-142.20,-100.85
1157,1522897628,0.4722,-0.9854,0.1348,106.89,-142.68,-104.02
1158,1522902629,0.4712,-0.9766,0.1182,108.35,-143.35,-107.13
1159,1522907629,0.4814,-0.9624,0.1177,108.90,-143.84,-110.30
1160,1522912629,0.4893,-0.9468,0.1162,108.11,-144.27,-113.60
1161,1522917628,0.5098,-0.9375,0.1060,106.28,-144.27,-117.07
1162,1522922630,0.5278,-0.9351,0.0928,103.11,-144.39,-120.30
1163,1522927629,0.5552,-0.9282,0.0718,99.33,-144.39,-123.84
1164,1522932629,0.5630,-0.9150,0.0732,95.18,-144.21,-127.13
1165,1522937628,0.5649,-0.8979,0.0693,91.34,-143.84,-130.49
1166,1522943041,0.5728,-0.8784,0.0630,88.41,-142.74,-133.72
1167,1522947631,0.5640,-0.8770,0.0464,87.07,-141.71,-136.71
1168,1522952628,0.5498,-0.8701,0.0254,87.07,-140.61,-139.27
1169,1522957629,0.5396,-0.8535,0.0156,88.60,-139.27,-141.71
1170,1522962627,0.5679,-0.8301,0.0161,91.28,-138.17,-143.66
1171,1522967629,0.6069,-0.8140,0.0225,94.21,-136.77,-145.49
1172,1522972628,0.6431,-0.8013,0.0239,97.44,-135.30,-146.95
1173,1522977629,0.6489,-0.7827,0.0254,100.43,-133.72,-148.35
1174,1522982627,0.6440,-0.7734,0.0142,103.05,-132.07,-149.63
1175,1522987631,0.6377,-0.7656,-0.0024,105.30,-130.85,-150.85
1176,1522992628,0.6470,-0.7627,-0.0190,107.01,-129.51,-152.01
1177,1522997629,0.6396,-0.7324,-0.0229,108.23,-128.23,-153.54
1178,1523002627,0.6250,-0.7109,-0.0186,108.78,-126.77,-155.43
1179,1523007629,0.6152,-0.6909,-0.0337,108.41,-125.43,-157.93
1180,1523012628,0.6099,-0.6685,-0.0537,107.62,-124.02,-160.73
1181,1523017629,0.6099,-0.6499,-0.0674,106.34,-123.11,-163.66
1182,1523022627,0.6274,-0.6216,-0.0610,104.39,-121.95,-166.65
1183,1523027629,0.6543,-0.5972,-0.0596,101.89,-120.98,-169.51
1184,1523032628,0.6753,-0.5830,-0.0547,99.02,-120.06,-172.07
1185,1523037629,0.6958,-0.5693,-0.0596,95.98,-118.96,-174.45
1186,1523042627,0.7070,-0.5518,-0.0542,93.29,-117.74,-176.40
1187,1523047631,0.7026,-0.5381,-0.0488,90.61,-116.59,-178.17
1188,1523052628,0.6914,-0.5361,-0.0469,88.48,-115.12,-179.57
1189,1523057629,0.6836,-0.5308,-0.0405,86.95,-113.35,-180.85
1190,1523062627,0.6797,-0.5254,-0.0420,86.16,-111.65,-181.59
1191,1523067629,0.6948,-0.5132,-0.0415,86.34,-109.82,-182.26
1192,1523072628,0.7031,-0.5005,-0.0420,87.20,-108.41,-182.68
1193,1523077629,0.7104,-0.4868,-0.0459,88.66,-106.95,-183.29
1194,1523082627,0.6963,-0.4668,-0.0552,90.00,-105.73,-183.78
1195,1523087629,0.6963,-0.4478,-0.0635,91.59,-104.70,-184.45
1196,1523092629,0.6943,-0.4219,-0.0684,92.93,-103.35,-185.12
1197,1523097629,0.6704,-0.3877,-0.0845,93.96,-101.95,-186.04
1198,1523102627,0.6426,-0.3516,-0.0967,94.33,-100.24,-187.20
1199,1523107629,0.6377,-0.3232,-0.0986,93.72,-98.41,-188.41
1200,1523112627,0.6528,-0.2993,-0.0986,92.56,-96.65,-189.39
1201,1523117630,0.6626,-0.2671,-0.1035,90.55,-94.51,-190.30
1202,1523122630,0.6826,-0.2446,-0.1079,88.35,-92.32,-190.98
1203,1523127628,0.7227,-0.2446,-0.1133,86.04,-90.12,-191.28
1204,1523132629,0.7505,-0.2275,-0.0923,84.02,-87.99,-191.22
1205,1523137629,0.7529,-0.2163,-0.0957,82.01,-85.49,-191.16
1206,1523142629,0.7485,-0.2041,-0.0967,80.49,-83.35,-191.04
1207,1523147628,0.7690,-0.1851,-0.0981,80.00,-80.98,-190.98
1208,1523152630,0.7710,-0.1787,-0.1016,80.49,-78.84,-190.85
1209,1523157629,0.7627,-0.1636,-0.0981,81.89,-76.89,-190.55
1210,1523162629,0.7720,-0.1514,-0.1011,84.21,-75.12,-190.12
1211,1523167628,0.7661,-0.1201,-0.1040,87.13,-73.29,-189.51
1212,1523172627,0.7505,-0.0981,-0.1128,90.49,-71.52,-188.90
1213,1523177629,0.7329,-0.0693,-0.0996,93.54,-69.39,-188.11
1214,1523182628,0.7173,-0.0386,-0.0928,96.10,-67.26,-187.32
1215,1523187631,0.7104,-0.0103,-0.0913,98.23,-65.24,-186.22
1216,1523192627,0.7290,0.0200,-0.0996,99.82,-63.60,-184.76
1217,1523197632,0.7539,0.0464,-0.0996,101.10,-61.83,-182.87
1218,1523202627,0.7778,0.0762,-0.0972,101.77,-60.37,-180.73
1219,1523207629,0.8008,0.0991,-0.0986,101.95,-59.02,-178.41
1220,1523212628,0.8379,0.0977,-0.1157,101.65,-57.93,-175.85
1221,1523217631,0.8604,0.1060,-0.1348,101.10,-57.13,-173.17
1222,1523222627,0.8506,0.1187,-0.1499,100.18,-56.40,-170.98
1223,1523227629,0.8281,0.1289,-0.1582,98.72,-55.67,-169.33
1224,1523232628,0.8101,0.1318,-0.1655,96.46,-54.57,-168.11
1225,1523237629,0.7939,0.1377,-0.1768,93.78,-53.23,-167.56
1226,1523242628,0.7793,0.1372,-0.1792,90.67,-51.65,-167.56
1227,1523247629,0.7441,0.1479,-0.1777,87.74,-49.70,-167.87
1228,1523252629,0.7368,0.1562,-0.1909,85.67,-47.38,-167.99
1229,1523257628,0.7700,0.1621,-0.1816,84.76,-44.88,-167.99
1230,1523262642,0.7881,0.1812,-0.1797,85.00,-42.07,-167.56
1231,1523267627,0.7783,0.1978,-0.1909,86.52,-39.33,-167.01
1232,1523272629,0.7725,0.2197,-0.1851,89.02,-36.77,-166.16
1233,1523277629,0.7749,0.2344,-0.1836,91.95,-34.15,-165.24
1234,1523282629,0.7930,0.2588,-0.1807,95.18,-31.95,-164.21
1235,1523287628,0.7900,0.2798,-0.1968,98.23,-30.12,-163.23
1236,1523292629,0.7402,0.2925,-0.1968,101.04,-28.72,-162.38
1237,1523297629,0.7573,0.2861,-0.2217,103.05,-27.62,-161.77
1238,1523302627,0.7700,0.2871,-0.2256,103.96,-27.07,-161.28
1239,1523307629,0.7261,0.2993,-0.2139,103.17,-26.46,-161.52
1240,1523312868,0.6899,0.3115,-0.2070,100.61,-26.04,-162.44
1241,1523317629,0.6816,0.3223,-0.2109,97.13,-25.43,-164.02
1242,1523322628,0.6758,0.3291,-0.2251,93.05,-25.06,-165.79
1243,1523327629,0.6724,0.3452,-0.2104,88.78,-24.76,-167.74
1244,1523332627,0.6836,0.3540,-0.2158,84.94,-24.45,-169.57
1245,1523337630,0.7007,0.3672,-0.2144,81.89,-24.33,-171.04
1246,1523342628,0.7056,0.3818,-0.2178,79.70,-24.27,-172.20
1247,1523347630,0.7207,0.3892,-0.2139,78.17,-24.15,-172.93
1248,1523352829,0.7451,0.3945,-0.2100,77.38,-23.96,-172.93
1249,1523357631,0.7568,0.3921,-0.2227,77.38,-23.84,-172.32
1250,1523362628,0.7588,0.3887,-0.2251,77.80,-23.48,-171.52
1251,1523367629,0.7480,0.3896,-0.2251,78.90,-23.11,-170.43
1252,1523372629,0.7295,0.3950,-0.2417,80.67,-22.50,-169.15
1253,1523377629,0.7012,0.3892,-0.2524,83.05,-21.89,-168.11
1254,1523382628,0.6812,0.3896,-0.2637,85.43,-21.04,-167.32
1255,1523387629,0.6353,0.4048,-0.2661,87.44,-20.24,-167.20
1256,1523392629,0.5776,0.4136,-0.2676,88.66,-19.27,-167.62
1257,1523397630,0.5371,0.4238,-0.2549,89.02,-18.60,-168.78
1258,1523402629,0.5298,0.4419,-0.2593,88.84,-17.68,-170.43
1259,1523407629,0.5215,0.4487,-0.2642,88.54,-17.01,-172.26
1260,1523412843,0.5054,0.4678,-0.2632,88.05,-16.46,-174.15
1261,1523417629,0.5034,0.4956,-0.2632,87.50,-16.22,-175.98
1262,1523422629,0.5146,0.5151,-0.2563,87.07,-16.28,-177.68
1263,1523427631,0.5171,0.5312,-0.2612,86.65,-16.59,-178.96
1264,1523432628,0.5176,0.5596,-0.2529,86.34,-17.13,-179.88
1265,1523437629,0.5210,0.5801,-0.2427,86.16,-17.93,-180.55
1266,1523442629,0.5283,0.5928,-0.2451,85.98,-18.90,-180.67
1267,1523447629,0.5259,0.6021,-0.2524,85.85,-20.24,-180.37
1268,1523452627,0.5225,0.5981,-0.2480,84.94,-21.59,-179.82
1269,1523457631,0.5337,0.5879,-0.2637,83.66,-22.74,-179.09
1270,1523462628,0.5391,0.5806,-0.2925,82.01,-23.66,-178.17
1271,1523467629,0.5122,0.5728,-0.2998,79.63,-24.33,-177.44
1272,1523472629,0.4712,0.5728,-0.3135,76.65,-24.57,-177.07
1273,1523477627,0.4478,0.5767,-0.3188,73.66,-24.33,-177.07
1274,1523482630,0.4468,0.5752,-0.3496,71.65,-23.90,-177.13
1275,1523487629,0.4409,0.5591,-0.3789,71.04,-23.48,-177.13
1276,1523492629,0.4141,0.5674,-0.3833,71.40,-22.99,-177.07
1277,1523497628,0.3623,0.5781,-0.3789,72.74,-22.44,-177.20
1278,1523502629,0.3198,0.6016,-0.3608,75.06,-21.71,-177.38
1279,1523507628,0.3076,0.6299,-0.3433,78.78,-20.98,-177.50
1280,1523512627,0.2983,0.6597,-0.3379,83.78,-20.37,-177.32
1281,1523517631,0.2876,0.6655,-0.3677,89.76,-20.43,-176.71
1282,1523522628,0.2817,0.6826,-0.3774,95.24,-21.22,-175.79
1283,1523527629,0.2603,0.7026,-0.3706,98.35,-22.68,-174.76
1284,1523532627,0.2373,0.7236,-0.3564,98.41,-23.96,-173.90
1285,1523537629,0.2417,0.7212,-0.3628,95.55,-25.43,-173.05
1286,1523542628,0.2500,0.7065,-0.4038,90.30,-26.95,-172.01
1287,1523547629,0.2427,0.7065,-0.4297,83.54,-28.66,-171.10
1288,1523552628,0.1992,0.7070,-0.4399,75.73,-30.37,-170.18
1289,1523557629,0.1641,0.7178,-0.4370,67.62,-31.52,-169.63
1290,1523562629,0.1519,0.7148,-0.4526,60.30,-32.26,-169.39
1291,1523567629,0.1465,0.6997,-0.4697,55.00,-32.93,-168.84
1292,1523572906,0.1450,0.6904,-0.4927,52.13,-33.23,-168.23
1293,1523577629,0.1123,0.6880,-0.5068,51.10,-33.29,-167.68
1294,1523582812,0.0537,0.6870,-0.4985,50.98,-32.99,-167.38
1295,1523587629,0.0186,0.6855,-0.4912,51.28,-32.44,-167.38
1296,1523592628,0.0063,0.6758,-0.4878,52.01,-31.28,-167.44
1297,1523597631,-0.0103,0.6616,-0.5000,53.35,-30.30,-167.50
1298,1523602628,-0.0322,0.6558,-0.5103,54.70,-29.39,-167.44
1299,1523607629,-0.0654,0.6582,-0.4976,56.10,-28.48,-167.26
1300,1523612627,-0.0825,0.6655,-0.4692,56.95,-27.74,-167.13
1301,1523617629,-0.0972,0.6758,-0.4541,57.44,-27.07,-166.95
1302,1523622630,-0.0962,0.6655,-0.4668,57.68,-26.59,-166.40
1303,1523627629,-0.1030,0.6694,-0.4878,57.20,-26.65,-165.73
1304,1523632629,-0.0952,0.8530,-0.4619,54.94,-26.89,-164.57
1305,1523637628,0.0615,1.5708,-0.2993,47.62,-27.99,-159.39
1306,1523642630,0.0430,1.8936,-0.3389,25.55,-30.73,-146.40
1307,1523647629,-0.2739,1.5107,-0.4351,1.95,-34.51,-131.04
1308,1523652629,-0.2183,1.1025,-0.4858,-9.63,-35.85,-123.41
1309,1523657628,-0.2202,0.7920,-0.5605,-13.17,-35.49,-121.89
1310,1523662630,-0.2642,0.6211,-0.6025,-11.95,-33.78,-122.99
1311,1523667629,-0.2397,0.5747,-0.5874,-7.68,-31.40,-124.70
1312,1523672629,-0.2798,0.5742,-0.6147,-1.22,-28.78,-126.83
1313,1523677628,-0.3301,0.5664,-0.6445,5.24,-26.28,-129.15
1314,1523682629,-0.3291,0.5762,-0.6245,11.52,-23.84,-131.34
1315,1523687629,-0.3179,0.5698,-0.6113,16.71,-21.22,-133.35
1316,1523692629,-0.3071,0.5654,-0.6245,20.24,-19.09,-134.94
1317,1523697628,-0.3193,0.5752,-0.6206,21.04,-17.26,-136.52
1318,1523702629,-0.3423,0.5864,-0.5806,19.02,-15.24,-137.99
1319,1523707629,-0.3535,0.6108,-0.5361,14.88,-12.68,-139.33
1320,1523712627,-0.3418,0.6509,-0.5244,9.88,-10.12,-140.18
1321,1523717629,-0.3306,0.6963,-0.5181,5.67,-7.74,-140.73
1322,1523722628,-0.3311,0.7451,-0.4697,2.80,-5.61,-140.55
1323,1523727629,-0.3042,0.8086,-0.4282,1.95,-3.35,-139.57
1324,1523732627,-0.2568,0.8643,-0.4053,3.90,-1.28,-137.68
1325,1523737629,-0.2129,0.9121,-0.3882,8.66,0.18,-134.70
1326,1523742628,-0.1738,0.9526,-0.3838,15.91,0.79,-130.49
1327,1523747629,-0.1274,0.9751,-0.3755,24.21,0.61,-125.18
1328,1523752627,-0.1294,0.9619,-0.4341,31.59,-0.49,-119.09
1329,1523757629,-0.0571,0.9458,-0.4790,36.40,-2.01,-112.50
1330,1523762628,-0.0630,0.9468,-0.4644,36.95,-3.41,-105.91
1331,1523767629,-0.1343,0.9419,-0.4731,32.32,-4.27,-100.06
1332,1523772629,-0.1680,0.9224,-0.5166,23.29,-4.51,-94.88
1333,1523777629,-0.1797,0.8926,-0.5596,12.20,-4.21,-90.55
1334,1523782628,-0.2114,0.8608,-0.5825,1.10,-3.66,-86.46
1335,1523787629,-0.2476,0.8433,-0.6299,-8.54,-2.99,-83.05
1336,1523792628,-0.2944,0.8257,-0.6562,-15.61,-2.26,-80.18
1337,1523797630,-0.3257,0.8208,-0.6514,-20.00,-1.28,-77.62
1338,1523802714,-0.3486,0.8066,-0.6470,-21.22,0.30,-75.49
1339,1523807628,-0.3833,0.8047,-0.6479,-19.33,1.89,-73.72
1340,1523812627,-0.3989,0.7959,-0.6782,-14.63,3.54,-72.13
1341,1523817629,-0.4292,0.7871,-0.6699,-8.35,5.24,-70.67
1342,1523822629,-0.4702,0.7720,-0.6724,-1.95,7.13,-69.63
1343,1523827628,-0.5122,0.7593,-0.6792,3.48,9.09,-68.78
1344,1523832629,-0.5195,0.7563,-0.6802,6.77,11.22,-68.17
1345,1523837628,-0.5132,0.7480,-0.6787,7.74,13.54,-67.80
1346,1523842826,-0.5273,0.7358,-0.6758,5.85,16.10,-67.62
1347,1523847629,-0.5522,0.7402,-0.6738,1.71,18.84,-67.62
1348,1523852628,-0.5498,0.7476,-0.6602,-4.39,21.89,-67.87
1349,1523857629,-0.5508,0.7441,-0.6382,-11.89,25.43,-68.11
1350,1523862627,-0.5332,0.7549,-0.6250,-19.02,29.02,-68.23
1351,1523867629,-0.5059,0.7705,-0.6167,-24.76,32.56,-67.99
1352,1523872629,-0.4863,0.7939,-0.5928,-28.11,35.98,-67.50
1353,1523877629,-0.4663,0.7998,-0.5767,-28.78,39.33,-66.46
1354,1523882627,-0.4517,0.8071,-0.5601,-27.32,42.26,-65.06
1355,1523887629,-0.4395,0.8252,-0.5474,-24.02,44.63,-63.17
1356,1523892628,-0.4370,0.8374,-0.5308,-19.45,46.95,-61.04
1357,1523897629,-0.4443,0.8442,-0.5137,-14.45,48.72,-58.78
1358,1523902627,-0.4492,0.8608,-0.5049,-9.63,50.12,-56.34
1359,1523907629,-0.4316,0.8770,-0.4912,-5.30,51.34,-53.84
1360,1523912629,-0.4189,0.8916,-0.4751,-1.65,52.20,-51.34
1361,1523917629,-0.4185,0.9102,-0.4521,1.04,52.87,-48.72
1362,1523922627,-0.4175,0.9482,-0.4189,2.07,53.17,-46.10
1363,1523927629,-0.4106,0.9956,-0.3784,0.79,53.17,-43.35
1364,1523932628,-0.4175,1.0356,-0.3267,-2.56,52.62,-40.24
1365,1523937629,-0.4351,1.0752,-0.2744,-7.74,51.52,-36.89
1366,1523942629,-0.4590,1.1196,-0.2319,-14.09,49.76,-33.05
1367,1523947629,-0.4814,1.1553,-0.1807,-20.91,47.20,-28.78
1368,1523952628,-0.4956,1.1831,-0.1440,-26.95,43.90,-24.09
1369,1523957629,-0.5073,1.1836,-0.1436,-31.04,40.06,-19.09
1370,1523962627,-0.5107,1.1660,-0.1694,-32.74,35.79,-13.90
1371,1523967629,-0.5107,1.1353,-0.2061,-31.34,31.71,-8.84
1372,1523972629,-0.5142,1.0845,-0.2456,-27.32,27.93,-4.33
1373,1523977629,-0.5151,1.0376,-0.2896,-21.16,24.94,-0.37
1374,1523982627,-0.5166,0.9854,-0.3247,-13.78,22.80,2.62
1375,1523987629,-0.5151,0.9473,-0.3594,-5.98,21.52,5.00
1376,1523992653,-0.5117,0.9229,-0.3823,1.52,20.85,6.46
1377,1523997631,-0.5010,0.9043,-0.4131,8.23,20.67,7.56
1378,1524002628,-0.4932,0.8833,-0.4375,14.09,20.91,8.17
1379,1524007631,-0.4717,0.8691,-0.4424,18.78,21.22,8.60
1380,1524012628,-0.4336,0.8628,-0.4565,22.26,21.71,8.78
1381,1524017629,-0.4048,0.8467,-0.4736,24.27,22.32,9.15
1382,1524022627,-0.3784,0.8359,-0.4883,24.39,22.87,9.21
1383,1524027629,-0.3682,0.8345,-0.4888,22.62,23.41,9.21
1384,1524032629,-0.3535,0.8242,-0.4927,19.02,24.09,8.90
1385,1524037629,-0.3428,0.8081,-0.5181,13.78,24.70,8.54
1386,1524042627,-0.3330,0.8022,-0.5264,7.50,25.43,7.99
1387,1524047629,-0.3359,0.7935,-0.5352,0.30,26.22,7.01
1388,1524052628,-0.3472,0.7749,-0.5410,-7.07,27.13,5.98
1389,1524057629,-0.3535,0.7617,-0.5435,-14.09,28.17,4.76
1390,1524062628,-0.3477,0.7539,-0.5449,-19.45,29.09,3.72
1391,1524067629,-0.3354,0.7441,-0.5376,-22.80,30.18,2.68
1392,1524072629,-0.3320,0.7461,-0.5259,-24.02,31.04,1.95
1393,1524077629,-0.3125,0.7544,-0.5078,-22.87,31.59,1.52
1394,1524082627,-0.2886,0.7568,-0.4897,-19.63,32.38,1.28
1395,1524087629,-0.2725,0.7642,-0.4746,-14.70,32.74,1.34
1396,1524092628,-0.2554,0.7817,-0.4556,-8.90,33.17,1.65
1397,1524097629,-0.2354,0.7896,-0.4429,-2.62,33.48,1.95
1398,1524102627,-0.2183,0.8003,-0.4365,3.17,33.72,2.32
1399,1524107629,-0.2124,0.8101,-0.4346,7.80,33.78,2.68
1400,1524112784,-0.2104,0.8179,-0.4248,10.67,33.78,2.93
1401,1524117629,-0.1963,0.8223,-0.4321,11.71,33.78,3.05
1402,1524122630,-0.1909,0.8105,-0.4316,10.55,33.60,3.11
1403,1524127684,-0.1885,0.7979,-0.4419,7.74,33.17,3.17
1404,1524132629,-0.1948,0.7881,-0.4453,3.54,32.87,3.35
1405,1524137629,-0.1914,0.7866,-0.4404,-1.40,32.20,3.41
1406,1524142628,-0.1758,0.7729,-0.4395,-6.40,31.65,3.41
1407,1524147629,-0.1753,0.7661,-0.4365,-10.79,31.04,3.60
1408,1524152629,-0.1714,0.7686,-0.4243,-14.21,30.24,3.78
1409,1524157629,-0.1650,0.7646,-0.4277,-16.40,29.57,3.84
1410,1524162628,-0.1689,0.7617,-0.4292,-17.38,28.96,3.72
1411,1524167629,-0.1821,0.7573,-0.4263,-17.38,28.41,3.41
1412,1524173113,-0.1880,0.7568,-0.4146,-16.40,27.87,2.99
1413,1524177631,-0.1943,0.7598,-0.4111,-14.45,27.50,2.32
1414,1524182628,-0.1992,0.7588,-0.4126,-11.52,27.13,1.59
1415,1524187630,-0.2075,0.7603,-0.4058,-7.99,26.65,0.91
1416,1524192627,-0.2065,0.7671,-0.3926,-4.15,26.10,0.30
1417,1524197632,-0.1992,0.7803,-0.3794,-0.18,25.37,-0.30
1418,1524202629,-0.2021,0.7910,-0.3604,3.23,24.76,-0.98
1419,1524207629,-0.1982,0.8091,-0.3491,5.79,23.84,-1.52
1420,1524212824,-0.1948,0.8271,-0.3398,7.44,22.99,-1.83
1421,1524217629,-0.1909,0.8462,-0.3286,7.80,21.77,-2.20
1422,1524222628,-0.1973,0.8604,-0.3164,6.71,20.67,-2.50
1423,1524227629,-0.2153,0.8643,-0.3135,4.02,19.15,-2.68
1424,1524232627,-0.2266,0.8667,-0.3140,0.06,17.74,-2.87
1425,1524237629,-0.2500,0.8735,-0.3110,-4.94,15.98,-3.11
1426,1524242628,-0.2622,0.8682,-0.3174,-10.30,14.39,-3.41
1427,1524247629,-0.2681,0.8633,-0.3188,-15.49,12.62,-3.66
1428,1524252627,-0.2793,0.8516,-0.3281,-19.76,10.98,-3.78
1429,1524257631,-0.2866,0.8447,-0.3359,-22.93,9.21,-4.02
1430,1524262629,-0.2886,0.8398,-0.3281,-24.94,7.38,-4.21
1431,1524267630,-0.2871,0.8467,-0.3169,-25.67,5.79,-4.27
1432,1524272627,-0.2793,0.8467,-0.3071,-25.24,4.39,-4.27
1433,1524277629,-0.2695,0.8452,-0.3101,-23.54,3.05,-4.02
1434,1524282631,-0.2617,0.8481,-0.2964,-21.10,1.65,-3.78
1435,1524287628,-0.2520,0.8442,-0.3003,-17.93,0.55,-3.60
1436,1524292630,-0.2417,0.8438,-0.2974,-14.70,-0.55,-3.48
1437,1524297629,-0.2500,0.8330,-0.3057,-11.89,-1.40,-3.35
1438,1524302757,-0.2583,0.8301,-0.3164,-9.88,-2.20,-3.29
1439,1524307629,-0.2627,0.8276,-0.3081,-8.84,-2.87,-3.48
1440,1524312629,-0.2725,0.8213,-0.3115,-8.35,-3.23,-3.54
1441,1524317629,-0.2778,0.8301,-0.3232,-8.60,-3.90,-3.72
1442,1524322628,-0.2720,0.8232,-0.3252,-8.66,-4.39,-3.72
1443,1524327629,-0.2661,0.8296,-0.3228,-8.78,-5.12,-3.84
1444,1524332627,-0.2627,0.8350,-0.3169,-8.60,-5.61,-3.60
1445,1524337629,-0.2495,0.8350,-0.3154,-8.23,-6.40,-3.23
1446,1524342629,-0.2407,0.8369,-0.3076,-7.99,-7.20,-2.80
1447,1524347628,-0.2354,0.8384,-0.3047,-7.74,-7.87,-2.20
1448,1524352629,-0.2236,0.8413,-0.3003,-7.87,-8.41,-1.46
1449,1524357629,-0.2104,0.8472,-0.2959,-7.93,-8.84,-0.67
1450,1524362629,-0.1997,0.8447,-0.3071,-7.74,-9.02,0.06
1451,1524367629,-0.2002,0.8462,-0.3135,-7.32,-9.15,0.91
1452,1524372629,-0.1978,0.8511,-0.3267,-6.77,-9.45,1.52
1453,1524377629,-0.1997,0.8423,-0.3301,-6.04,-9.33,2.20
1454,1524382630,-0.1968,0.8389,-0.3408,-5.00,-9.02,2.62
1455,1524387629,-0.1934,0.8350,-0.3608,-3.78,-8.66,3.17
1456,1524392629,-0.1885,0.8350,-0.3672,-2.20,-8.29,3.48
1457,1524397629,-0.1938,0.8403,-0.3770,-0.37,-7.68,3.96
1458,1524402627,-0.1865,0.8408,-0.3823,1.40,-7.26,4.27
1459,1524407631,-0.1865,0.8447,-0.3848,2.87,-6.40,4.70
1460,1524412628,-0.1865,0.8535,-0.3921,4.02,-5.73,5.24
1461,1524417629,-0.1841,0.8594,-0.3901,5.06,-4.88,5.61
1462,1524422629,-0.1738,0.8633,-0.3916,6.04,-4.02,6.22
1463,1524427629,-0.1826,0.8677,-0.4009,6.59,-3.11,6.89
1464,1524432628,-0.1865,0.8657,-0.4014,6.95,-2.38,7.38
1465,1524437629,-0.1865,0.8706,-0.4067,6.95,-1.52,8.11
1466,1524442628,-0.1948,0.8687,-0.4141,6.65,-0.73,8.72
1467,1524447629,-0.1904,0.8682,-0.4077,6.10,0.06,9.27
1468,1524452628,-0.1978,0.8696,-0.4136,5.00,0.61,9.88
1469,1524457629,-0.2075,0.8672,-0.4102,3.60,1.28,10.18
1470,1524462628,-0.2139,0.8721,-0.4302,1.89,1.83,10.61
1471,1524467629,-0.2236,0.8711,-0.4248,0.06,2.50,10.73
1472,1524472628,-0.2271,0.8760,-0.4272,-1.77,2.99,11.04
1473,1524477629,-0.2334,0.8833,-0.4194,-3.41,3.48,11.22
1474,1524482629,-0.2300,0.8848,-0.4165,-4.57,4.15,11.34
1475,1524487629,-0.2251,0.8877,-0.4043,-5.12,4.57,11.52
1476,1524492627,-0.2192,0.8833,-0.3970,-4.94,5.06,11.89
1477,1524497629,-0.2124,0.8843,-0.4038,-4.09,5.30,12.44
1478,1524502629,-0.2007,0.8828,-0.3975,-2.93,5.55,12.93
1479,1524507629,-0.1953,0.8809,-0.3828,-1.65,5.61,13.60
1480,1524512628,-0.1870,0.8770,-0.3687,-0.49,5.49,14.15
1481,1524517629,-0.1709,0.8711,-0.3604,0.61,5.61,14.76
1482,1524522628,-0.1626,0.8657,-0.3452,1.89,5.61,15.37
1483,1524527629,-0.1567,0.8604,-0.3403,3.29,5.61,15.73
