# skilleye imu stream v1
# device=xiao_esp32c6 imu=mpu6050 addr=0x68
# rate_hz=200 accel_range_g=16 gyro_range_dps=2000 dlpf_hz=94
# units: accel in g, gyro in deg/s, t_us in microseconds since boot (monotonic)
# no shared clock with the camera -- tap the racket once before each take
# so both recordings share a spike to align on
seq,t_us,ax,ay,az,gx,gy,gz
0,1296338244,0.6011,0.8999,0.2231,-3.17,-3.23,-2.68
1,1296342693,0.6045,0.9062,0.2178,-5.24,-3.66,-2.44
2,1296347629,0.6099,0.9004,0.2104,-7.50,-4.15,-2.20
3,1296352628,0.6304,0.8936,0.2236,-9.45,-4.88,-2.07
4,1296357627,0.6450,0.8872,0.2349,-9.94,-5.67,-2.26
5,1296362628,0.6538,0.8657,0.2417,-8.90,-6.71,-2.56
6,1296367630,0.6582,0.8501,0.2461,-6.95,-7.62,-2.74
7,1296372629,0.6660,0.8369,0.2373,-4.39,-8.35,-3.17
8,1296377629,0.6694,0.8198,0.2368,-2.26,-9.21,-3.54
9,1296382627,0.6646,0.7993,0.2275,-0.85,-10.06,-4.15
10,1296387627,0.6611,0.7866,0.2231,0.12,-10.49,-4.88
11,1296392629,0.6470,0.7764,0.2139,0.24,-10.91,-5.73
12,1296397631,0.6323,0.7646,0.2153,-0.18,-11.16,-6.46
13,1296402629,0.6060,0.7524,0.1958,-1.22,-11.34,-7.07
14,1296407628,0.5928,0.7568,0.1934,-2.68,-11.34,-7.56
15,1296412629,0.5845,0.7559,0.1865,-4.33,-11.04,-7.68
16,1296417627,0.5742,0.7778,0.1895,-6.22,-10.67,-7.93
17,1296422629,0.5596,0.7915,0.1821,-8.66,-10.18,-7.87
18,1296427628,0.5352,0.8062,0.1802,-11.95,-9.51,-7.44
19,1296432627,0.5000,0.8169,0.1753,-15.37,-9.15,-6.71
20,1296437629,0.4785,0.8237,0.1870,-18.48,-8.96,-5.49
21,1296442629,0.4609,0.8320,0.1948,-20.37,-9.27,-4.33
22,1296447627,0.4717,0.8262,0.2207,-20.37,-9.82,-2.99
23,1296452627,0.5015,0.8154,0.2310,-17.80,-10.73,-1.65
24,1296457631,0.5205,0.8203,0.2246,-13.05,-11.46,-0.30
25,1296462628,0.5293,0.8140,0.2100,-7.32,-12.20,0.91
26,1296467627,0.5342,0.8037,0.1934,-2.01,-12.38,1.89
27,1296472629,0.5459,0.7900,0.1870,1.95,-12.62,2.44
28,1296477629,0.5557,0.7896,0.1899,4.33,-12.80,2.68
29,1296482627,0.5669,0.7988,0.1982,5.67,-12.93,2.62
30,1296487627,0.5845,0.8145,0.1904,6.52,-13.17,2.50
31,1296492629,0.5923,0.8281,0.1895,6.89,-13.17,2.26
32,1296497627,0.6060,0.8447,0.1841,6.95,-13.05,2.07
33,1296502631,0.6182,0.8608,0.1802,6.77,-12.99,1.77
34,1296507628,0.6279,0.8789,0.1729,6.10,-12.62,1.65
35,1296512629,0.6343,0.9028,0.1738,4.88,-12.32,1.46
36,1296517627,0.6440,0.9155,0.1680,3.11,-12.01,1.52
37,1296522627,0.6401,0.9248,0.1641,1.28,-11.65,1.65
38,1296527871,0.6328,0.9331,0.1636,-0.37,-11.40,1.89
39,1296532629,0.6187,0.9438,0.1777,-1.65,-11.16,2.20
40,1296537629,0.6123,0.9326,0.1655,-2.32,-10.91,2.32
41,1296542629,0.6016,0.9468,0.1489,-2.80,-10.79,2.38
42,1296547629,0.6055,0.9409,0.1655,-3.66,-10.61,2.44
43,1296552628,0.6206,0.9365,0.1758,-4.27,-10.18,2.32
44,1296557629,0.6313,0.9268,0.1699,-4.94,-9.76,2.44
45,1296562627,0.6333,0.9346,0.1626,-5.55,-9.27,2.50
46,1296567628,0.6353,0.9492,0.1577,-6.46,-8.35,2.68
47,1296572627,0.6362,0.9585,0.1572,-7.87,-7.32,2.62
48,1296577627,0.6353,0.9644,0.1611,-9.94,-5.73,2.68
49,1296582629,0.6362,0.9702,0.1699,-11.83,-4.82,2.80
50,1296587629,0.6206,0.9570,0.1611,-14.39,-3.48,3.05
51,1296592627,0.6123,0.9395,0.1670,-17.01,-2.26,3.48
52,1296597628,0.6099,0.9482,0.1714,-19.76,-1.22,4.21
53,1296602629,0.5747,0.9419,0.1899,-22.01,-0.12,4.63
54,1296607629,0.5820,0.8770,0.2021,-23.54,0.98,5.30
55,1296612629,0.5947,0.8564,0.1924,-24.76,2.01,5.85
56,1296617629,0.5942,0.8457,0.1689,-25.61,2.74,6.40
57,1296622627,0.5693,0.8604,0.1816,-25.91,3.48,6.71
58,1296627631,0.5337,0.8311,0.1816,-25.00,4.21,6.83
59,1296632629,0.5479,0.7812,0.2129,-23.29,4.63,6.89
60,1296637628,0.5410,0.7783,0.2065,-21.59,4.94,6.77
61,1296642631,0.5361,0.7656,0.2051,-19.82,4.88,6.28
62,1296647627,0.5220,0.7524,0.2153,-17.99,4.94,5.91
63,1296652627,0.4897,0.7461,0.2100,-15.85,4.88,5.43
64,1296657627,0.4692,0.7339,0.1978,-12.99,4.51,4.45
65,1296662627,0.4927,0.7080,0.2256,-9.76,4.27,3.54
66,1296668043,0.4888,0.6602,0.2397,-6.95,4.15,2.87
67,1296672629,0.4854,0.6582,0.2202,-4.70,4.51,2.56
68,1296677661,0.4839,0.6567,0.1914,-3.17,5.06,2.01
69,1296682629,0.4492,0.6504,0.1797,-2.62,5.61,1.34
70,1296687627,0.4287,0.6553,0.1938,-2.32,6.16,0.49
71,1296692627,0.4219,0.6641,0.1660,-2.68,6.83,-0.55
72,1296697631,0.4209,0.6611,0.1519,-3.60,7.01,-1.65
73,1296702628,0.4277,0.6479,0.1421,-5.06,6.46,-2.87
74,1296707627,0.4268,0.6411,0.1387,-6.52,5.18,-4.33
75,1296712629,0.4214,0.6162,0.1709,-7.26,3.48,-5.43
76,1296717628,0.4146,0.6094,0.1968,-6.95,1.52,-6.34
77,1296722629,0.3926,0.6304,0.1855,-5.85,-0.06,-7.07
78,1296727627,0.3965,0.6670,0.1714,-4.51,-1.22,-7.87
79,1296732629,0.4209,0.7114,0.1553,-3.29,-2.01,-8.96
80,1296737627,0.4546,0.7378,0.1626,-2.56,-2.50,-10.55
81,1296742627,0.4692,0.7480,0.1636,-2.62,-2.68,-12.56
82,1296747629,0.4614,0.7627,0.1665,-3.29,-2.62,-14.76
83,1296752795,0.4106,0.7422,0.1694,-4.63,-2.20,-17.38
84,1296757629,0.3672,0.6948,0.1675,-6.52,-1.65,-19.94
85,1296762627,0.3452,0.6558,0.1509,-9.09,-0.73,-22.26
86,1296767630,0.3555,0.6304,0.1353,-12.20,0.18,-24.15
87,1296772629,0.3452,0.6211,0.1538,-15.67,1.16,-26.04
88,1296777627,0.3882,0.6465,0.1201,-19.45,2.07,-27.93
89,1296782629,0.4624,0.6768,0.1084,-22.38,2.68,-30.06
90,1296787629,0.5137,0.6973,0.1050,-23.96,3.41,-32.01
91,1296792627,0.5396,0.7129,0.1040,-24.09,4.27,-33.84
92,1296797627,0.5503,0.7314,0.0972,-22.80,4.94,-35.61
93,1296802629,0.5518,0.7500,0.1035,-19.88,5.67,-37.32
94,1296807631,0.5513,0.7676,0.1133,-15.73,6.65,-39.09
95,1296812629,0.5498,0.7744,0.1147,-10.30,7.44,-41.04
96,1296817628,0.5215,0.8032,0.1934,-3.66,8.48,-43.05
97,1296822631,0.4805,0.7690,0.1636,7.38,8.72,-44.70
98,1296827627,0.5649,0.8125,0.2959,21.71,8.72,-46.22
99,1296832627,0.5361,0.8574,0.2744,36.71,9.21,-47.68
100,1296837627,0.5195,0.8457,0.1797,51.71,8.96,-48.41
101,1296842629,0.5044,0.8462,0.1514,66.10,8.23,-48.72
102,1296847628,0.4980,0.8579,0.1528,79.45,7.99,-48.54
103,1296852629,0.4863,0.8691,0.1152,91.40,7.68,-48.29
104,1296857627,0.4688,0.8750,0.0747,101.28,7.20,-47.93
105,1296862627,0.4438,0.8984,0.0679,108.90,6.95,-47.38
106,1296867627,0.4390,0.9146,0.0596,114.39,6.40,-47.01
107,1296872627,0.4526,0.9277,0.0435,117.32,6.16,-46.65
108,1296877627,0.4580,0.9302,0.0444,117.74,5.67,-46.10
109,1296882712,0.4561,0.9326,0.0322,115.43,5.49,-45.43
110,1296887628,0.4370,0.9385,0.0137,110.73,5.12,-44.63
111,1296892627,0.4277,0.9448,-0.0107,103.72,4.70,-43.78
112,1296897627,0.4453,0.9434,-0.0210,94.88,4.27,-42.62
113,1296902632,0.4482,0.9551,-0.0034,84.45,4.09,-41.65
114,1296907631,0.4722,0.9565,-0.0176,72.50,4.33,-40.49
115,1296912627,0.4878,0.9595,-0.0405,60.00,4.57,-39.21
116,1296917627,0.4800,0.9697,0.0083,47.68,5.06,-37.99
117,1296923031,0.4585,0.9761,0.0718,36.52,5.61,-36.65
118,1296927629,0.4487,0.9780,0.1230,27.62,5.98,-35.30
119,1296932628,0.4536,0.9917,0.1665,21.22,6.04,-33.78
120,1296937628,0.4497,1.0122,0.1997,17.93,5.79,-32.20
121,1296942627,0.4443,1.0278,0.2095,17.62,5.18,-30.43
122,1296947627,0.4604,1.0303,0.2339,20.18,4.39,-28.23
123,1296952627,0.4854,1.0342,0.2568,25.61,3.29,-25.61
124,1296957627,0.4932,1.0415,0.2773,33.23,2.13,-22.56
125,1296962627,0.4873,1.0557,0.2793,42.01,1.28,-19.57
126,1296967627,0.4985,1.0664,0.2773,50.91,0.37,-16.46
127,1296972627,0.5298,1.0776,0.2651,58.41,-0.37,-13.66
128,1296977627,0.5615,1.1021,0.2515,63.29,-0.85,-10.98
129,1296982627,0.5928,1.1235,0.2305,65.00,-1.22,-8.35
130,1296987627,0.6094,1.1533,0.2085,63.72,-1.16,-5.49
131,1296992627,0.6177,1.2007,0.1699,58.54,-0.91,-1.77
132,1296997629,0.6240,1.2256,0.1621,53.72,-0.67,1.04
133,1297002630,0.6367,1.2563,0.1855,47.44,-0.43,4.57
134,1297007628,0.6499,1.2881,0.2124,42.07,0.12,8.23
135,1297012627,0.6670,1.2998,0.2393,37.56,0.73,11.95
136,1297017629,0.6802,1.3042,0.2476,33.54,1.28,15.67
137,1297022629,0.6836,1.3022,0.2417,29.70,1.59,19.45
138,1297027628,0.6987,1.3086,0.2378,25.55,2.26,23.11
139,1297032629,0.7202,1.3267,0.2476,20.85,2.87,26.95
140,1297037627,0.7271,1.3569,0.2549,15.61,3.41,30.55
141,1297042630,0.7417,1.3643,0.2646,9.94,4.27,34.27
142,1297047628,0.7617,1.3687,0.2764,4.09,4.88,37.99
143,1297052631,0.7837,1.3628,0.2754,-2.13,5.73,41.46
144,1297057627,0.8188,1.3530,0.2939,-8.84,6.52,44.76
145,1297062629,0.8271,1.3550,0.3931,-15.06,7.26,47.68
146,1297067628,0.8145,1.3647,0.4229,-18.60,7.62,50.43
147,1297072629,0.8359,1.3125,0.3789,-17.80,6.65,52.93
148,1297077629,0.8555,1.2778,0.5264,-14.15,5.55,55.37
149,1297082627,0.8525,1.2656,0.5586,-8.05,4.88,57.68
150,1297087629,0.8423,1.2520,0.4722,-0.06,3.48,59.76
151,1297092629,0.8311,1.2061,0.4580,8.72,2.07,61.46
152,1297097627,0.8452,1.1577,0.4453,17.44,1.04,62.93
153,1297102627,0.8726,1.1157,0.3765,25.91,-0.12,63.96
154,1297107628,0.8667,1.0996,0.3096,34.15,-1.40,64.63
155,1297112879,0.8540,1.0928,0.3496,42.20,-2.26,65.06
156,1297117629,0.8774,1.1021,0.2524,49.09,-3.05,65.37
157,1297122629,0.8306,1.1450,0.3003,55.55,-3.84,65.79
158,1297127630,0.8252,1.1587,0.2988,58.29,-4.45,66.59
159,1297132629,0.8135,1.2021,0.2715,58.23,-5.85,67.32
160,1297137627,0.7803,1.2524,0.2910,58.66,-6.22,68.41
161,1297142628,0.7241,1.3096,0.2510,57.01,-6.28,70.12
162,1297147629,0.6616,1.3428,0.1694,53.05,-6.46,72.68
163,1297152629,0.6421,1.3872,0.1631,46.40,-6.65,75.79
164,1297157704,0.5957,1.4370,0.1641,37.87,-6.65,79.39
165,1297162627,0.5615,1.4727,0.1133,28.05,-6.65,83.60
166,1297167627,0.5435,1.5322,0.1011,18.72,-6.65,88.17
167,1297172627,0.4644,1.5718,0.1035,9.94,-6.46,92.93
168,1297177627,0.4346,1.5820,0.0615,1.83,-6.28,98.29
169,1297182627,0.4399,1.6060,0.0552,-5.12,-6.22,103.72
170,1297187631,0.4224,1.6206,0.0391,-10.85,-5.73,109.51
171,1297192628,0.3916,1.6323,-0.0088,-15.61,-5.55,115.73
172,1297197627,0.3853,1.6426,-0.0254,-19.51,-5.37,122.13
173,1297202627,0.3794,1.6460,-0.0239,-22.01,-5.30,128.78
174,1297207627,0.3750,1.6372,-0.0591,-23.17,-5.37,135.30
175,1297212627,0.3799,1.6152,-0.0708,-22.68,-5.43,141.65
176,1297217631,0.3862,1.5903,-0.0703,-21.04,-5.49,147.99
177,1297222628,0.3945,1.5581,-0.0859,-18.41,-5.49,154.09
178,1297227627,0.4053,1.5298,-0.0938,-15.43,-5.61,159.94
179,1297232627,0.3965,1.4917,-0.0889,-12.93,-5.43,165.55
180,1297237627,0.3999,1.4492,-0.1084,-11.77,-5.49,170.79
181,1297242631,0.4087,1.3940,-0.1260,-12.13,-5.55,175.61
182,1297247629,0.4043,1.3335,-0.1304,-13.90,-5.55,180.00
183,1297252787,0.3809,1.2734,-0.1343,-16.40,-5.85,183.84
184,1297257630,0.3853,1.1885,-0.1353,-18.41,-6.10,187.26
185,1297262627,0.4165,1.1250,-0.1343,-19.21,-6.52,190.12
186,1297267705,0.4209,1.0581,-0.1230,-18.78,-7.07,192.38
187,1297272631,0.4106,0.9810,-0.1367,-17.68,-7.62,194.15
188,1297277628,0.4243,0.8975,-0.1421,-15.85,-8.35,195.24
189,1297282629,0.4590,0.8223,-0.1338,-12.62,-9.15,195.73
190,1297287627,0.4775,0.7422,-0.1309,-8.41,-9.88,195.55
191,1297292639,0.4800,0.6592,-0.1411,-4.27,-10.37,194.45
192,1297297629,0.4819,0.5815,-0.1426,-0.49,-10.55,192.99
193,1297302629,0.4790,0.5112,-0.1450,3.11,-10.67,190.98
194,1297307628,0.4619,0.4355,-0.1602,6.59,-10.49,188.48
195,1297312629,0.4653,0.3706,-0.1538,10.06,-10.12,185.61
196,1297317627,0.4697,0.3022,-0.1426,12.93,-9.27,182.38
197,1297322629,0.4604,0.2559,-0.1523,15.37,-8.29,178.66
198,1297327629,0.4609,0.2163,-0.1392,16.71,-7.13,174.63
199,1297332628,0.4360,0.1777,-0.1357,16.77,-5.79,170.24
200,1297337630,0.4287,0.1362,-0.1436,15.12,-4.63,165.85
201,1297342629,0.4482,0.1196,-0.1426,11.89,-3.23,161.10
202,1297347628,0.4619,0.0923,-0.1377,8.23,-2.13,156.16
203,1297352629,0.4624,0.0713,-0.1406,4.21,-0.91,151.04
204,1297357629,0.4629,0.0278,-0.1489,0.79,0.24,145.85
205,1297362629,0.4731,-0.0054,-0.1465,-1.46,1.16,140.61
206,1297367628,0.5083,-0.0205,-0.1382,-1.46,2.07,135.18
207,1297372627,0.5410,-0.0215,-0.1353,0.79,2.87,129.45
208,1297377627,0.5288,-0.0464,-0.1514,4.15,3.96,123.66
209,1297382660,0.4966,-0.0850,-0.1787,7.50,5.24,118.05
210,1297387629,0.4814,-0.0918,-0.1934,11.10,6.83,112.87
211,1297392627,0.4731,-0.0952,-0.1948,15.37,8.72,107.68
212,1297397627,0.4600,-0.1167,-0.2002,19.76,10.67,102.50
213,1297402627,0.4434,-0.1050,-0.2148,23.48,12.93,97.62
214,1297407627,0.4482,-0.1294,-0.2163,24.94,15.37,92.56
215,1297413043,0.4595,-0.1343,-0.2163,24.33,17.62,87.80
216,1297417629,0.4761,-0.1440,-0.2129,21.89,19.70,82.26
217,1297422982,0.4746,-0.1670,-0.1968,18.41,21.65,77.01
218,1297427629,0.4858,-0.1880,-0.1934,14.82,23.54,71.89
219,1297432627,0.5083,-0.2095,-0.1865,12.50,24.94,66.59
220,1297437629,0.5337,-0.2246,-0.1660,12.44,26.34,61.22
221,1297442629,0.5430,-0.2510,-0.1426,14.82,27.44,55.61
222,1297447662,0.5259,-0.2920,-0.1250,18.78,28.72,49.94
223,1297452628,0.4878,-0.3452,-0.1211,23.90,29.76,44.45
224,1297457627,0.4668,-0.3701,-0.1152,30.24,30.79,38.84
225,1297462627,0.4600,-0.4048,-0.0845,38.11,31.52,32.93
226,1297467629,0.4419,-0.4565,-0.0679,47.20,32.44,26.71
227,1297472627,0.4297,-0.5054,-0.0532,56.04,33.11,20.12
228,1297477627,0.4404,-0.5444,-0.0396,63.90,33.54,13.11
229,1297482627,0.4570,-0.5757,-0.0190,70.18,33.54,5.49
230,1297487627,0.4580,-0.6040,0.0034,74.70,33.29,-2.62
231,1297492629,0.4478,-0.6348,0.0278,77.01,32.68,-11.28
232,1297497628,0.4375,-0.6646,0.0469,76.95,31.95,-20.00
233,1297502627,0.4150,-0.6929,0.0728,74.88,30.85,-29.02
234,1297507629,0.4087,-0.7246,0.1099,71.10,29.82,-38.54
235,1297512627,0.4004,-0.7422,0.1406,65.85,28.78,-48.29
236,1297517629,0.3906,-0.7681,0.1738,59.39,28.05,-58.54
237,1297522628,0.3745,-0.7920,0.1938,52.44,26.34,-69.02
238,1297527628,0.3633,-0.8237,0.2246,45.85,24.76,-79.76
239,1297532629,0.3486,-0.8491,0.2642,40.67,23.23,-90.79
240,1297537628,0.3521,-0.8716,0.2871,37.26,21.40,-102.01
241,1297542629,0.3799,-0.8721,0.3237,35.12,19.57,-113.78
242,1297547627,0.4116,-0.8760,0.3525,33.66,17.44,-126.22
243,1297552628,0.4434,-0.8721,0.3755,31.71,15.06,-138.96
244,1297557629,0.4512,-0.8623,0.3896,28.96,12.26,-151.95
245,1297562629,0.4624,-0.8271,0.3862,25.85,9.33,-164.82
246,1297567627,0.5176,-0.7378,0.3911,23.90,6.04,-177.99
247,1297572627,0.5425,-0.6572,0.3916,23.48,2.99,-191.04
248,1297577627,0.4907,-0.5669,0.3701,24.09,0.18,-203.35
249,1297582627,0.4888,-0.4375,0.3169,25.18,-2.38,-214.57
250,1297587627,0.5068,-0.2900,0.2783,27.44,-4.88,-224.76
251,1297592627,0.4551,-0.1382,0.2495,32.50,-6.59,-233.41
252,1297597627,0.4111,0.0283,0.1958,40.24,-7.99,-240.18
253,1297602627,0.3892,0.2051,0.1367,50.00,-8.78,-244.82
254,1297607627,0.3594,0.3838,0.0923,61.34,-9.57,-247.32
255,1297612627,0.3296,0.5830,0.0376,74.27,-10.24,-248.11
256,1297617627,0.3242,0.7793,-0.0049,87.50,-10.67,-247.13
257,1297622627,0.3237,0.9688,-0.0586,99.39,-10.73,-244.51
258,1297627825,1.4893,5.7539,0.7437,108.23,-10.24,-235.61
259,1297632629,1.9097,8.2466,0.2954,-5.00,-1.65,-145.12
260,1297637674,0.5771,0.8423,-0.0527,-19.88,-32.80,-71.34
261,1297642629,1.3804,2.2900,2.2524,6.71,-18.11,-28.60
262,1297647629,1.3398,4.2197,-1.1055,32.56,-16.65,-1.22
263,1297652629,0.8198,3.6641,-1.0425,26.16,-27.38,12.62
264,1297657629,0.8945,2.1631,0.9185,25.55,-20.85,22.99
265,1297663191,1.0557,0.9082,-0.1787,30.06,-14.02,32.13
266,1297667631,1.0649,0.9380,-0.9731,30.06,-16.77,40.49
267,1297672628,0.9878,1.6553,0.1304,22.80,-14.15,47.38
268,1297677629,1.0234,1.8599,0.0400,11.10,-9.33,53.29
269,1297682627,1.0659,1.6660,-0.5605,-2.32,-9.88,59.27
270,1297687629,1.0078,1.4668,-0.0039,-16.04,-9.15,65.49
271,1297692628,0.9673,1.2925,0.1650,-28.23,-5.91,71.52
272,1297697629,1.0054,1.2490,-0.2822,-36.59,-6.16,77.20
273,1297702627,1.0112,1.3330,-0.0874,-38.96,-6.59,82.38
274,1297707630,0.9717,1.2808,0.1387,-36.04,-5.06,87.01
275,1297712628,0.9399,1.1143,-0.1060,-29.21,-4.45,91.59
276,1297717627,0.9155,0.9961,-0.0933,-19.88,-4.88,95.91
277,1297722628,0.9043,0.9014,0.0771,-9.27,-4.21,99.88
278,1297727629,0.8853,0.7998,-0.0293,1.52,-3.96,103.05
279,1297732629,0.8589,0.6909,-0.0752,10.61,-4.70,105.55
280,1297737627,0.8267,0.5635,0.0225,16.59,-5.00,107.20
281,1297742627,0.8057,0.4131,0.0010,19.82,-5.61,107.87
282,1297747627,0.7798,0.2715,-0.0488,21.04,-6.95,107.74
283,1297752636,0.7290,0.1494,0.0249,20.91,-8.11,106.34
284,1297757628,0.6655,0.0181,0.0439,20.24,-8.96,104.02
285,1297762629,0.6064,-0.1221,0.0220,19.51,-9.94,100.43
286,1297767627,0.5522,-0.2554,0.0825,19.15,-10.73,95.85
287,1297772627,0.5107,-0.3823,0.1162,19.09,-13.90,90.06
288,1297777627,0.4746,-0.5034,0.1177,18.05,-11.89,83.05
289,1297782642,0.4395,-0.6250,0.1318,16.16,-12.56,74.39
290,1297787627,0.4253,-0.7402,0.1519,12.93,-12.74,64.82
291,1297792630,0.4150,-0.8442,0.1621,9.27,-13.41,53.84
292,1297797629,0.4087,-0.9424,0.1621,5.49,-13.90,41.77
293,1297803077,0.3975,-1.0225,0.1606,2.26,-14.70,28.48
294,1297807631,0.3921,-1.0996,0.1562,0.24,-15.55,14.33
295,1297812628,0.3779,-1.1646,0.1479,0.00,-16.34,-0.79
296,1297817629,0.3745,-1.2085,0.1392,1.65,-16.95,-16.34
297,1297822627,0.3740,-1.2222,0.1274,5.18,-17.74,-32.87
298,1297827630,0.3833,-1.2231,0.1050,9.94,-18.35,-49.51
299,1297832629,0.3550,-1.2061,0.0815,15.79,-19.02,-66.10
300,1297837628,0.3433,-1.1548,0.0703,22.20,-19.51,-82.68
301,1297842627,0.3433,-1.0649,0.0444,28.48,-19.76,-98.96
302,1297847630,0.3223,-0.9883,0.0239,33.60,-19.51,-114.82
303,1297852628,0.2788,-0.9053,0.0059,36.22,-18.96,-129.76
304,1297857631,0.2637,-0.7964,-0.0283,36.22,-18.11,-143.90
305,1297862627,0.2827,-0.6768,-0.0532,34.70,-17.07,-157.07
306,1297867627,0.3154,-0.5469,-0.0688,33.29,-15.98,-169.57
307,1297872631,0.3491,-0.4033,-0.0830,32.68,-14.51,-181.28
308,1297877628,0.4097,-0.2520,-0.1099,32.68,-13.17,-192.32
309,1297882805,0.4492,-0.0942,-0.1304,32.93,-11.52,-202.44
310,1297887627,0.4702,0.0664,-0.1479,32.13,-9.82,-211.34
311,1297892632,1.4136,6.0586,0.0835,31.77,-8.17,-212.74
312,1297897629,2.8950,8.6616,1.8965,2.26,-7.87,-114.21
313,1297902628,0.0972,4.4116,1.1460,-64.51,-15.12,-3.05
314,1297907629,1.2573,3.6094,-0.8120,-67.38,-18.11,22.93
315,1297912627,1.3447,2.6851,0.1641,-35.06,-14.76,28.35
316,1297917627,1.0049,0.1787,0.3896,-14.63,-9.39,25.00
317,1297922627,1.0303,-0.8286,-0.6162,-8.60,-12.68,22.20
318,1297927631,1.0020,-0.1226,0.0620,-9.33,-15.18,16.89
319,1297932628,1.0259,0.6699,0.4863,-11.89,-13.23,9.33
320,1297937627,1.0635,0.8198,-0.1621,-16.10,-15.18,1.95
321,1297942631,1.0342,0.5024,0.0776,-22.20,-18.66,-4.21
322,1297947628,0.9614,0.1855,0.5054,-28.90,-18.54,-9.02
323,1297952629,0.9272,0.2070,0.1274,-35.55,-19.94,-13.29
324,1297957628,0.9048,0.5190,0.0674,-41.95,-22.93,-17.50
325,1297962633,0.8740,0.7061,0.3638,-48.29,-23.84,-21.34
326,1297967629,0.8618,0.6602,0.2227,-54.45,-24.63,-24.15
327,1297972628,0.8501,0.5947,0.0986,-60.00,-26.77,-26.04
328,1297977629,0.7915,0.6270,0.2578,-65.12,-27.93,-27.07
329,1297982628,0.7363,0.7134,0.2407,-69.82,-28.23,-27.38
330,1297987629,0.6992,0.8032,0.1216,-75.00,-29.27,-26.89
331,1297992627,0.6611,0.8403,0.1978,-81.22,-29.70,-25.85
332,1297997629,0.6299,0.8218,0.2266,-89.21,-29.70,-24.15
333,1298002629,0.5933,0.8242,0.1553,-99.45,-30.37,-22.20
334,1298007631,0.5454,0.8486,0.1709,-112.38,-30.91,-20.12
335,1298012628,0.4927,0.8594,0.1831,-127.99,-31.46,-18.11
336,1298017627,0.4702,0.8403,0.1245,-144.88,-32.68,-16.16
337,1298022627,0.4541,0.8340,0.1055,-161.40,-34.57,-14.09
338,1298027630,0.4189,0.8018,0.1147,-175.30,-36.34,-12.50
339,1298032629,0.4512,0.7490,0.0947,-183.90,-37.93,-10.73
340,1298037628,0.5127,0.7158,0.0889,-186.34,-39.45,-9.27
341,1298042629,0.5513,0.6777,0.0908,-183.05,-40.49,-8.11
342,1298047628,0.5625,0.6367,0.0830,-175.18,-40.91,-7.32
343,1298052629,0.5791,0.5889,0.0640,-163.90,-41.22,-6.95
344,1298057629,0.6270,0.5610,0.0649,-150.91,-41.10,-7.07
345,1298062629,0.6641,0.5327,0.0566,-137.56,-40.55,-7.74
346,1298067628,0.6787,0.4937,0.0317,-126.22,-39.70,-9.02
347,1298072627,0.6885,0.4492,0.0244,-117.87,-38.78,-10.79
348,1298077629,0.7031,0.4102,-0.0068,-114.27,-37.56,-12.93
349,1298082628,0.7236,0.3652,-0.0430,-115.67,-36.22,-15.37
350,1298087627,0.7373,0.3232,-0.0640,-121.83,-35.18,-18.17
351,1298092629,0.7402,0.2993,-0.0854,-131.83,-33.78,-21.10
352,1298097631,0.7363,0.2910,-0.1196,-144.33,-32.44,-24.51
353,1298102627,0.7095,0.2861,-0.1611,-157.68,-31.16,-28.29
354,1298107628,0.6914,0.2729,-0.1733,-169.63,-29.88,-32.01
355,1298112629,0.6968,0.2661,-0.1724,-177.74,-27.68,-35.49
356,1298117627,0.6987,0.2734,-0.1675,-181.04,-25.06,-38.78
357,1298122631,0.6909,0.3135,-0.1675,-179.57,-21.83,-41.89
358,1298127694,0.6963,0.3354,-0.1963,-173.66,-18.35,-44.88
359,1298132629,0.7427,0.3330,-0.1958,-163.60,-14.76,-47.74
360,1298137627,0.7881,0.3442,-0.2070,-149.51,-10.98,-50.12
361,1298142629,0.8105,0.3711,-0.2202,-132.74,-7.01,-52.38
362,1298147628,0.8081,0.4062,-0.2168,-114.57,-3.11,-54.33
363,1298152627,0.8159,0.4229,-0.2061,-96.22,0.79,-56.28
364,1298157627,0.8149,0.4453,-0.2031,-78.66,4.82,-57.87
365,1298162627,0.7900,0.4741,-0.1948,-62.87,8.90,-59.57
366,1298167628,0.7891,0.5054,-0.1870,-50.06,12.87,-60.91
367,1298172627,0.8057,0.5337,-0.1880,-41.22,16.71,-62.38
368,1298177627,0.8198,0.5664,-0.1763,-36.28,20.24,-63.84
369,1298182627,0.8262,0.5938,-0.1733,-35.37,23.66,-64.94
370,1298187627,0.8101,0.6270,-0.1748,-37.80,26.71,-65.85
371,1298192627,0.7783,0.6650,-0.1670,-43.11,29.94,-66.59
372,1298197648,0.7134,0.7153,-0.1733,-50.12,32.68,-67.13
373,1298202690,0.6484,0.7319,-0.1714,-56.95,35.67,-67.44
374,1298207629,0.6445,0.7412,-0.1387,-61.40,38.78,-67.07
375,1298212630,0.6748,0.7700,-0.0947,-62.68,42.26,-66.34
376,1298217627,0.6890,0.8013,-0.0713,-60.61,46.10,-65.37
377,1298222627,0.7026,0.8345,-0.0347,-56.04,50.18,-64.51
378,1298227627,0.7065,0.8711,-0.0063,-49.88,54.51,-63.60
379,1298232628,0.6001,1.4785,1.1631,-46.71,60.06,-62.13
380,1298237630,0.6157,1.5605,0.7231,-62.13,63.11,-60.24
381,1298242627,0.7910,1.2471,0.0566,-82.07,57.13,-56.77
382,1298247629,0.6812,1.0029,1.2407,-98.54,57.38,-52.32
383,1298252629,0.6870,1.0171,1.1250,-112.74,59.82,-46.16
384,1298257630,0.6606,1.3486,0.5293,-124.63,56.65,-39.76
385,1298262628,0.5713,1.5024,0.8877,-134.33,53.84,-33.84
386,1298267629,0.6538,1.3013,1.1143,-140.61,52.62,-27.68
387,1298272628,0.7412,1.1440,0.8652,-142.93,48.96,-22.01
388,1298277629,0.7051,1.1836,0.8330,-141.59,44.27,-16.89
389,1298282629,0.6406,1.1846,0.8560,-137.38,40.91,-11.71
390,1298287627,0.8975,1.2061,0.7266,-131.16,38.66,-7.80
391,1298292631,0.7119,0.7954,0.4771,-122.32,34.09,-5.73
392,1298297628,0.6274,0.5835,0.7861,-111.83,29.51,-4.57
393,1298302629,0.5835,0.6108,0.7886,-101.46,26.22,-4.76
394,1298307629,0.6636,0.8071,0.5845,-93.72,21.40,-5.18
395,1298312627,0.7896,0.9375,0.5493,-84.21,17.20,-5.06
396,1298317627,0.8638,1.0063,0.5552,-72.80,14.27,-3.90
397,1298322627,0.8276,1.0605,0.4858,-61.40,11.46,-2.07
398,1298327627,0.6909,1.1353,0.4927,-51.89,8.72,0.55
399,1298332627,0.5537,1.1558,0.5972,-44.33,5.79,3.96
400,1298337627,0.5010,1.1519,0.6592,-38.17,2.38,8.41
401,1298342627,0.5415,1.1074,0.6221,-32.26,-1.04,13.48
402,1298347631,0.5679,1.1074,0.6206,-27.44,-3.84,19.45
403,1298352629,0.4248,0.8896,0.8311,-24.27,-6.59,22.80
404,1298357629,0.4497,0.6675,1.0649,-25.43,-9.88,23.72
405,1298362629,0.5278,0.6089,1.0029,-32.26,-14.15,23.35
406,1298367627,0.6191,0.5215,0.8613,-43.72,-18.41,22.20
407,1298372630,0.6401,0.4785,0.7866,-55.98,-22.32,20.12
408,1298377628,0.5664,0.5063,0.7349,-68.60,-25.61,17.38
409,1298382629,0.5273,0.5181,0.7192,-80.18,-28.05,14.63
410,1298387629,0.5151,0.5244,0.7178,-89.70,-29.51,12.32
411,1298392627,0.5474,0.5405,0.7256,-95.06,-30.49,10.24
412,1298397631,0.5371,0.5630,0.7612,-96.77,-31.52,8.29
413,1298402628,0.5488,0.5386,0.8311,-95.06,-33.11,6.34
414,1298407629,0.5293,0.5332,0.8291,-90.85,-35.79,4.33
415,1298412629,0.5532,0.4951,0.8687,-82.93,-38.78,2.44
416,1298417627,0.5625,0.4507,0.8564,-72.74,-42.68,1.22
417,1298422627,0.5806,0.4487,0.9038,-62.20,-46.77,0.49
418,1298427631,0.5645,0.4883,0.9844,-52.68,-51.04,-0.30
419,1298432629,0.5850,0.5630,0.9917,-43.96,-53.90,-1.40
420,1298437628,0.6143,0.6816,0.9155,-37.93,-56.71,-3.23
421,1298442629,0.5581,0.7939,0.8364,-35.98,-60.30,-6.22
422,1298447627,0.5493,0.6958,0.9478,-39.94,-63.23,-9.76
423,1298452629,0.4854,0.8267,0.8584,-49.76,-66.95,-14.15
424,1298457629,0.5327,0.6274,1.1064,-63.41,-69.45,-17.80
425,1298462835,0.5869,0.6191,1.1587,-78.66,-69.21,-19.15
426,1298467630,0.6953,0.5659,0.9941,-94.63,-68.48,-18.78
427,1298472627,0.7505,0.6362,0.6948,-106.83,-68.48,-16.95
428,1298477628,0.8018,0.6602,0.7529,-116.04,-68.35,-13.90
429,1298482630,0.7549,0.8091,0.7134,-120.43,-66.28,-10.24
430,1298487874,0.8892,0.8613,0.6377,-123.29,-65.67,-6.34
431,1298492629,0.8467,0.8779,0.5884,-122.32,-65.67,-2.38
432,1298497629,0.5874,1.0000,0.7158,-120.30,-65.37,1.52
433,1298502628,0.3721,0.9858,0.8223,-119.88,-64.94,5.00
434,1298507629,0.4487,0.9204,0.5479,-119.33,-65.79,8.78
435,1298512629,0.4946,0.7642,0.7676,-117.01,-66.46,12.87
436,1298517628,0.5498,0.6733,0.8745,-113.90,-65.85,17.26
437,1298522629,0.6201,0.6504,0.8506,-110.12,-65.30,20.98
438,1298527627,0.6240,0.6392,0.8916,-105.85,-64.45,23.60
439,1298532627,0.6021,0.7329,0.8970,-101.65,-62.62,24.51
440,1298537627,0.6079,0.7427,0.9072,-97.62,-60.12,22.74
441,1298542629,0.6216,0.6509,0.8452,-95.00,-57.20,20.18
442,1298547627,0.6938,0.5596,0.7993,-95.30,-54.57,17.74
443,1298552627,0.8882,0.3877,0.8335,-100.18,-52.87,14.57
444,1298557629,0.7505,0.3989,0.8540,-111.10,-52.01,10.61
445,1298562952,0.4414,0.7017,0.7842,-126.04,-51.16,5.91
446,1298567629,0.2798,0.8652,0.6743,-135.67,-50.49,2.26
447,1298572629,0.3877,0.8765,0.6611,-133.60,-48.11,1.71
448,1298577629,0.6904,0.8340,0.6221,-125.30,-46.28,3.60
449,1298582627,0.9390,0.8516,0.6562,-113.17,-45.98,6.16
450,1298587628,1.0732,0.8877,0.7871,-100.24,-46.34,7.44
451,1298592629,1.1045,0.8765,0.8193,-90.37,-47.80,7.01
452,1298597628,1.0757,0.7744,0.8618,-83.41,-49.45,4.88
453,1298602629,1.0303,0.6470,0.9106,-80.55,-52.01,1.65
454,1298607629,0.9360,0.5713,0.9458,-79.45,-55.67,-1.52
455,1298612627,0.8486,0.5615,1.0205,-78.60,-59.82,-4.63
456,1298617629,0.8315,0.5996,1.0054,-75.49,-63.84,-7.07
457,1298622629,0.8379,0.6235,1.0552,-72.50,-68.84,-8.48
458,1298627628,0.8335,0.6436,1.0918,-67.68,-73.66,-8.72
459,1298632627,0.8154,0.6821,1.1353,-60.79,-78.41,-8.35
460,1298637629,0.7983,0.7026,1.1763,-53.23,-82.44,-8.17
461,1298642629,0.7612,0.6812,1.1699,-46.52,-86.04,-8.23
462,1298647627,0.7104,0.6191,1.1387,-41.10,-88.90,-8.41
463,1298652627,0.6836,0.5503,1.1206,-36.95,-91.77,-8.11
464,1298657627,0.6782,0.5107,1.1455,-33.60,-94.27,-6.95
465,1298662628,0.6538,0.5190,1.1670,-30.85,-96.28,-5.00
466,1298667627,0.6128,0.5586,1.2114,-28.66,-98.29,-2.56
467,1298672629,0.5679,0.5845,1.2090,-26.89,-99.94,0.49
468,1298677628,0.5610,0.6094,1.2222,-25.98,-101.40,4.33
469,1298682631,0.5825,0.6274,1.2227,-26.52,-103.23,8.78
470,1298687627,0.6079,0.6421,1.2529,-28.66,-105.00,13.11
471,1298692629,0.6411,0.6455,1.2607,-31.95,-106.59,17.20
472,1298697628,0.6509,0.6416,1.2510,-36.40,-107.62,21.16
473,1298703133,0.6309,0.6216,1.2368,-41.83,-108.54,25.00
474,1298707630,0.6211,0.6021,1.2339,-48.23,-109.09,28.66
475,1298712627,0.6362,0.5962,1.2290,-55.06,-109.02,31.89
476,1298717627,0.6709,0.5854,1.2319,-61.34,-108.66,34.63
477,1298722627,0.7114,0.6079,1.2397,-66.95,-107.44,37.20
478,1298727627,0.7324,0.6138,1.2153,-72.07,-105.73,39.39
479,1298732779,0.7354,0.5908,1.1797,-77.56,-103.60,41.22
480,1298737628,0.7241,0.5649,1.1436,-83.48,-101.40,42.99
481,1298742627,0.7349,0.5288,1.1104,-89.82,-99.09,44.15
482,1298747629,0.7510,0.4883,1.0996,-95.43,-96.46,44.76
483,1298752627,0.7441,0.4390,1.0767,-100.30,-93.35,44.82
484,1298757627,0.7241,0.4062,1.0586,-104.02,-90.37,44.57
485,1298762966,0.7017,0.3765,1.0239,-106.71,-86.77,44.15
486,1298767630,0.6772,0.3506,1.0049,-109.09,-83.78,43.54
487,1298772629,0.6714,0.3511,0.9912,-110.91,-80.67,42.93
488,1298777629,0.6816,0.3794,0.9858,-112.80,-77.50,41.83
489,1298782628,0.6753,0.3955,0.9907,-114.45,-74.39,40.98
490,1298787710,0.6533,0.4243,0.9712,-115.98,-71.28,40.43
491,1298792629,0.6240,0.4502,1.0259,-118.60,-68.90,40.37
492,1298797628,0.6177,0.4463,1.0122,-118.54,-66.77,40.49
493,1298802629,0.5972,0.4429,1.0469,-117.20,-65.61,40.73
494,1298807627,0.5991,0.4209,1.0713,-115.98,-64.51,40.55
495,1298812887,0.6016,0.4019,0.9932,-116.89,-63.66,39.82
496,1298817629,0.5850,0.3462,1.0381,-121.04,-62.80,38.60
497,1298822628,0.6479,0.1675,1.2031,-131.83,-62.38,36.34
498,1298827627,0.5640,0.1074,1.2720,-150.49,-62.56,33.29
499,1298832627,0.5830,0.1660,1.1694,-169.51,-64.15,29.76
500,1298837627,0.5757,0.2607,1.2852,-184.57,-65.85,26.34
501,1298842631,0.5933,0.2856,1.3359,-193.05,-67.01,23.35
502,1298847629,0.5825,0.2900,1.2349,-194.88,-68.66,21.34
503,1298852628,0.5811,0.3071,1.2524,-191.71,-70.61,19.88
504,1298857627,0.5796,0.3496,1.2744,-185.49,-72.56,18.90
505,1298862629,0.5977,0.3975,1.2148,-177.74,-74.88,18.17
506,1298867629,0.6250,0.4551,1.2036,-170.73,-77.62,17.26
507,1298872629,0.6113,0.4814,1.2148,-166.16,-80.12,16.28
508,1298877629,0.6060,0.4995,1.1772,-164.88,-83.05,15.55
509,1298882627,0.6138,0.5215,1.1372,-166.52,-86.04,14.57
510,1298887629,0.6211,0.5508,1.1328,-170.91,-88.66,13.41
511,1298892629,0.6226,0.5815,1.0981,-176.65,-91.28,12.20
512,1298897628,0.6323,0.6035,1.0396,-182.68,-93.60,11.16
513,1298902627,0.6221,0.6221,1.0190,-187.87,-95.49,10.18
514,1298907627,0.6133,0.6279,0.9712,-191.77,-96.95,9.63
515,1298912629,0.6128,0.6279,0.8994,-194.15,-98.29,9.33
516,1298917627,0.6411,0.6470,0.8638,-195.00,-99.27,8.78
517,1298922627,0.6533,0.6431,0.8115,-194.39,-100.00,8.11
518,1298927629,0.6650,0.6323,0.7305,-193.48,-100.55,7.50
519,1298932629,0.6782,0.6235,0.6772,-192.56,-101.10,6.71
520,1298937628,0.6875,0.6118,0.6167,-191.34,-101.83,5.61
521,1298942629,0.6909,0.6118,0.5591,-189.63,-102.32,4.33
522,1298947629,0.7056,0.6104,0.5083,-187.56,-102.74,3.05
523,1298952629,0.6890,0.6113,0.4648,-185.49,-102.99,1.77
524,1298957627,0.6616,0.6147,0.4175,-183.35,-103.54,0.61
525,1298962629,0.6226,0.6274,0.3696,-181.28,-104.27,-0.43
526,1298967628,0.6035,0.6445,0.3135,-179.15,-105.12,-0.98
527,1298972627,0.5776,0.6572,0.2959,-176.22,-105.79,-1.22
528,1298977629,0.5508,0.6709,0.2646,-172.74,-106.52,-1.22
529,1298982627,0.5396,0.6758,0.2192,-169.57,-107.13,-0.85
530,1298987629,0.5229,0.6831,0.1890,-167.38,-107.62,-0.55
531,1298992627,0.5293,0.6826,0.1504,-165.91,-108.11,-0.30
532,1298997627,0.5288,0.6743,0.1118,-165.12,-108.41,-0.18
533,1299002627,0.5352,0.6646,0.0713,-164.57,-108.54,-0.30
534,1299007629,0.5493,0.6465,0.0244,-163.41,-108.60,-0.43
535,1299012819,0.5781,0.6367,-0.0166,-161.10,-108.72,-0.98
536,1299017629,0.6055,0.6353,-0.0322,-156.83,-108.54,-1.83
537,1299022629,0.6064,0.6328,-0.0562,-151.28,-108.17,-2.56
538,1299027629,0.6172,0.6313,-0.0972,-145.18,-107.74,-3.35
539,1299032629,0.6196,0.6304,-0.1152,-139.09,-107.13,-4.02
540,1299037628,0.6152,0.6333,-0.1313,-133.41,-106.83,-4.76
541,1299042629,0.6079,0.6353,-0.1479,-128.41,-106.16,-5.18
542,1299047629,0.5796,0.6338,-0.1509,-124.02,-105.61,-5.61
543,1299052629,0.5483,0.6367,-0.1680,-120.43,-105.24,-5.73
544,1299057628,0.5312,0.6367,-0.1729,-117.68,-104.94,-5.73
545,1299062627,0.4985,0.6348,-0.1909,-115.12,-104.70,-5.61
546,1299067629,0.4775,0.6221,-0.2031,-112.56,-104.51,-5.43
547,1299072629,0.4658,0.6113,-0.2222,-109.70,-104.15,-5.06
548,1299077628,0.4683,0.5977,-0.2437,-107.07,-103.96,-4.70
549,1299082629,0.4697,0.5811,-0.2666,-104.76,-103.60,-4.51
550,1299087628,0.4741,0.5630,-0.2930,-102.87,-103.11,-4.33
551,1299092629,0.4907,0.5474,-0.3213,-101.10,-102.50,-4.57
552,1299097628,0.5234,0.5215,-0.3413,-99.15,-101.59,-5.06
553,1299102629,0.5454,0.5063,-0.3613,-96.71,-100.61,-6.04
554,1299107627,0.5688,0.4746,-0.3984,-93.78,-99.63,-7.26
555,1299112629,0.5869,0.4541,-0.4219,-90.24,-98.41,-8.78
556,1299117628,0.6074,0.4316,-0.4268,-85.98,-97.20,-10.49
557,1299122629,0.6089,0.4102,-0.4355,-80.98,-96.04,-12.26
558,1299127629,0.6025,0.3911,-0.4478,-76.04,-94.82,-14.02
559,1299132629,0.6006,0.3687,-0.4492,-71.16,-93.23,-15.79
560,1299137628,0.5933,0.3438,-0.4521,-66.77,-92.13,-17.44
561,1299142631,0.5820,0.3213,-0.4619,-63.17,-90.91,-19.09
562,1299147627,0.5742,0.3047,-0.4751,-60.67,-89.82,-20.55
563,1299152627,0.5635,0.2847,-0.4854,-58.96,-88.78,-22.13
564,1299157629,0.5513,0.2603,-0.5029,-57.68,-87.62,-23.66
565,1299162629,0.5527,0.2349,-0.5239,-56.16,-86.34,-25.37
566,1299167628,0.5586,0.2217,-0.5376,-54.27,-85.12,-27.13
567,1299172629,0.5747,0.2222,-0.5532,-52.44,-83.60,-29.09
568,1299177627,0.5811,0.2124,-0.5752,-50.55,-81.95,-31.28
569,1299182629,0.5830,0.2017,-0.5957,-48.41,-80.55,-33.54
570,1299187628,0.5957,0.2061,-0.6094,-45.91,-79.09,-35.91
571,1299192629,0.6055,0.2080,-0.6133,-42.80,-77.32,-38.35
572,1299197629,0.6045,0.2183,-0.6108,-39.27,-75.91,-40.67
573,1299202627,0.5859,0.2212,-0.6123,-35.06,-74.51,-42.68
574,1299207627,0.5757,0.2183,-0.6064,-30.37,-73.23,-44.63
575,1299212627,0.5718,0.2148,-0.6074,-24.88,-72.01,-46.28
576,1299217627,0.5688,0.2080,-0.5986,-18.96,-70.91,-47.68
577,1299222627,0.5688,0.1855,-0.5957,-13.17,-69.82,-49.21
578,1299227627,0.5684,0.1733,-0.5894,-8.05,-68.90,-50.79
579,1299232629,0.5732,0.1685,-0.5845,-4.27,-67.68,-52.74
580,1299237628,0.5713,0.1553,-0.6021,-2.13,-66.83,-54.88
581,1299242627,0.5723,0.1494,-0.6167,-0.79,-65.67,-57.01
582,1299247627,0.5723,0.1406,-0.6357,0.61,-64.39,-59.51
583,1299252627,0.5625,0.1289,-0.6543,2.32,-63.05,-62.01
584,1299257627,0.5640,0.1396,-0.6738,4.39,-61.89,-64.70
585,1299262629,0.5527,0.1528,-0.6821,7.13,-60.55,-67.56
586,1299267627,0.5361,0.1782,-0.6948,10.43,-59.63,-70.37
587,1299272629,0.5083,0.2090,-0.6987,13.78,-58.84,-72.99
588,1299277628,0.4893,0.2344,-0.7017,16.59,-58.54,-75.37
589,1299282629,0.4648,0.2642,-0.7002,18.96,-58.54,-77.62
590,1299287627,0.4653,0.2871,-0.7012,21.59,-58.90,-79.82
591,1299292630,0.4492,0.2979,-0.7197,24.88,-59.27,-82.20
592,1299297628,0.4580,0.2808,-0.7383,29.88,-59.88,-84.51
593,1299302627,0.4648,0.2603,-0.7466,37.13,-60.18,-86.95
594,1299307627,0.4858,0.2515,-0.7539,46.34,-60.06,-89.76
595,1299312627,0.5024,0.2275,-0.7822,55.55,-60.00,-92.87
596,1299317629,0.4868,0.2178,-0.8052,63.17,-59.33,-96.10
597,1299322629,0.4790,0.2090,-0.8228,67.80,-58.48,-99.63
598,1299327627,0.4775,0.2139,-0.8369,69.15,-57.26,-103.60
599,1299332629,0.4814,0.2383,-0.8550,67.20,-56.10,-107.87
600,1299337628,0.4683,0.2725,-0.8882,63.17,-54.82,-112.38
601,1299342628,0.4395,0.3228,-0.9258,58.84,-53.84,-117.20
602,1299347629,0.3994,0.3672,-0.9688,56.04,-53.41,-121.77
603,1299352627,0.3491,0.4189,-1.0181,56.34,-53.66,-126.34
604,1299357629,0.2974,0.4702,-1.0815,60.30,-54.70,-130.67
605,1299362629,0.2520,0.5210,-1.1406,67.38,-56.46,-135.12
606,1299367628,0.1968,0.5674,-1.2168,77.50,-58.96,-139.70
607,1299372627,0.1382,0.5884,-1.2788,90.24,-61.95,-144.45
608,1299377629,0.0640,0.6196,-1.3442,104.45,-65.30,-149.27
609,1299382629,0.0283,0.6377,-1.3979,118.96,-68.54,-154.39
610,1299387628,0.0298,0.6733,-1.4507,132.74,-71.71,-159.63
611,1299392627,0.0410,0.7109,-1.4858,145.37,-74.33,-165.18
612,1299397627,0.0601,0.7456,-1.5107,156.95,-76.65,-170.79
613,1299402627,0.0762,0.7803,-1.5239,167.44,-78.11,-176.40
614,1299407627,0.1040,0.8066,-1.5635,176.40,-78.78,-181.89
615,1299412627,0.1187,0.8418,-1.6021,183.17,-78.23,-187.20
616,1299417629,0.1396,0.8828,-1.6431,187.13,-76.77,-192.56
617,1299422627,0.1216,0.9111,-1.7065,188.17,-74.39,-197.93
618,1299427631,0.0908,0.9629,-1.7612,186.52,-71.22,-202.68
619,1299432628,0.1162,1.0386,-1.8062,184.51,-67.68,-207.32
620,1299437627,0.1421,1.1221,-1.8486,185.00,-63.35,-211.59
621,1299442627,0.1489,1.2158,-1.8970,189.15,-58.60,-215.24
622,1299447629,0.1470,1.3110,-1.9419,196.40,-54.09,-218.54
623,1299452627,0.2119,1.4009,-1.9639,206.40,-49.45,-221.52
624,1299457627,0.2666,1.4609,-1.9473,218.23,-44.33,-224.15
625,1299462631,0.3149,1.5103,-1.9204,230.61,-38.48,-226.34
626,1299467628,0.3755,1.5649,-1.8696,242.62,-31.89,-227.87
627,1299472627,0.4229,1.6182,-1.7983,253.78,-24.88,-228.54
628,1299477629,0.4341,1.6626,-1.7124,262.44,-16.83,-228.35
629,1299482627,0.4297,1.6875,-1.6328,266.89,-7.93,-226.89
630,1299487627,0.4614,1.7251,-1.5308,267.44,2.13,-224.27
631,1299492629,0.5361,1.7866,-1.4355,264.09,13.48,-221.16
632,1299497628,0.5122,1.8223,-1.3784,256.65,25.67,-217.01
633,1299502629,0.4614,1.8770,-1.3398,245.98,38.35,-211.59
634,1299507627,0.4453,1.9360,-1.2998,233.60,51.52,-205.18
635,1299512627,0.4512,1.9990,-1.2383,221.95,64.45,-197.99
636,1299517627,0.4688,2.0522,-1.1401,213.17,77.56,-190.06
637,1299522635,0.4819,2.0908,-1.0400,208.23,89.76,-181.46
638,1299527629,0.4990,2.0938,-0.9360,207.44,102.01,-172.74
639,1299532628,0.5288,2.0757,-0.8130,209.70,112.87,-164.21
640,1299537627,0.5898,2.0396,-0.6924,214.27,122.20,-156.65
641,1299542631,0.6616,1.9644,-0.5381,219.51,130.18,-150.24
642,1299547627,0.7314,1.8701,-0.3906,224.27,136.95,-145.18
643,1299552627,0.8784,1.8320,-0.2427,227.32,142.99,-141.77
644,1299557627,0.9175,1.7417,-0.1436,225.91,148.48,-139.70
645,1299562627,0.9004,1.6670,-0.0610,220.67,153.29,-137.56
646,1299567627,0.9395,1.6646,0.0317,214.57,157.62,-135.43
647,1299572627,0.9463,1.6880,0.1069,209.94,161.89,-133.29
648,1299577627,0.8540,1.7153,0.1343,205.37,165.79,-130.30
649,1299582627,0.8145,1.7651,0.1973,201.04,168.66,-126.28
650,1299587627,0.8164,1.8003,0.3164,198.48,171.46,-121.16
651,1299592627,0.8032,1.8340,0.4199,196.89,174.51,-115.06
652,1299597631,0.8125,1.8408,0.4829,192.93,177.26,-108.23
653,1299602628,0.8022,1.8691,0.5225,184.51,178.78,-101.34
654,1299607627,0.7646,1.8462,0.5571,172.99,178.66,-94.39
655,1299612630,0.7461,1.8149,0.6128,162.44,177.38,-87.26
656,1299617629,0.7373,1.7583,0.6562,155.24,175.00,-80.49
657,1299622629,0.7334,1.6885,0.6533,151.71,171.52,-74.21
658,1299627628,0.7329,1.6069,0.6562,151.46,167.07,-68.78
659,1299632629,0.7505,1.5244,0.6494,154.15,161.89,-64.39
660,1299637629,0.7451,1.4253,0.6138,158.90,156.22,-60.85
661,1299642629,0.7886,1.3755,0.6060,164.15,150.24,-58.17
662,1299647627,0.8784,1.3047,0.5918,168.35,144.76,-56.40
663,1299652629,0.9111,1.2285,0.5664,169.82,139.94,-54.63
664,1299657627,1.0400,1.1782,0.6011,167.68,136.22,-52.68
665,1299662627,1.1382,1.1299,0.6587,161.28,133.66,-50.30
666,1299667631,1.1392,1.0913,0.6758,150.06,131.83,-46.95
667,1299672628,1.1465,1.1035,0.6631,133.96,129.70,-42.80
668,1299677627,1.1187,1.1270,0.6729,115.30,126.46,-37.87
669,1299682627,1.0547,1.1475,0.6792,97.80,122.56,-31.95
670,1299687627,1.0049,1.1704,0.6689,84.39,117.50,-25.37
671,1299692629,0.9551,1.1709,0.6592,76.34,111.22,-18.41
672,1299697627,0.9209,1.1748,0.6475,73.29,104.27,-11.46
673,1299702628,0.9106,1.1450,0.6143,73.84,97.01,-5.06
674,1299707629,0.8896,1.0967,0.5879,76.10,88.96,0.67
675,1299712628,0.8774,1.0498,0.5566,79.09,81.28,5.55
676,1299717776,0.8848,0.9946,0.5161,82.01,73.54,9.15
677,1299722629,0.8984,0.9609,0.4893,84.02,66.10,11.65
678,1299727629,0.9004,0.9170,0.4585,84.82,59.27,13.35
679,1299732629,0.8936,0.8853,0.4219,84.09,53.11,14.57
680,1299737630,0.8901,0.8442,0.3911,82.44,47.68,15.49
681,1299742629,0.8882,0.8232,0.3496,80.43,43.23,16.34
682,1299747630,0.9014,0.7769,0.2979,78.05,39.33,17.13
683,1299752629,0.9185,0.7329,0.2485,75.37,36.16,18.05
684,1299757627,0.9272,0.6733,0.2080,73.84,33.84,19.09
685,1299762627,0.9438,0.6182,0.1670,73.60,32.01,20.06
686,1299767627,0.9644,0.5664,0.1265,74.02,30.85,20.98
687,1299772627,0.9722,0.5151,0.0908,73.96,29.94,21.59
688,1299777627,0.9736,0.4795,0.0757,72.93,29.45,21.71
689,1299782627,0.9570,0.4443,0.0654,70.49,29.45,21.52
690,1299787627,0.8999,0.4146,0.0425,65.73,29.39,21.40
691,1299792632,0.8608,0.3989,0.0435,58.66,29.33,21.22
692,1299797750,0.8330,0.4038,0.0376,50.30,29.15,21.52
693,1299802629,0.7788,0.4082,0.0356,42.01,28.66,21.83
694,1299807627,0.7314,0.4170,0.0337,34.27,27.99,22.93
695,1299812628,0.7173,0.4341,0.0142,28.05,27.20,24.39
696,1299817630,0.7148,0.4316,-0.0078,23.54,26.28,25.98
697,1299822628,0.7212,0.4082,-0.0259,21.04,25.12,27.50
698,1299827629,0.7305,0.3867,-0.0498,20.73,23.96,28.96
699,1299832629,0.7671,0.3491,-0.0679,21.89,23.29,29.82
700,1299837627,0.8052,0.3105,-0.0854,23.17,22.74,30.06
701,1299842627,0.8306,0.2798,-0.1069,23.60,22.20,29.51
702,1299847627,0.8594,0.2476,-0.1128,22.68,21.52,28.11
703,1299852627,0.8857,0.2202,-0.1143,20.91,20.85,26.22
704,1299857627,0.8994,0.2031,-0.1260,18.60,20.06,23.66
705,1299862627,0.9092,0.1953,-0.1216,16.04,19.02,21.10
706,1299867631,0.8965,0.2065,-0.1172,13.84,17.87,18.35
707,1299872628,0.8755,0.2202,-0.1147,12.32,16.89,16.16
708,1299877627,0.8530,0.2422,-0.1255,11.22,15.85,13.96
709,1299882629,0.8252,0.2637,-0.1221,10.55,15.00,12.20
710,1299887853,0.8042,0.2764,-0.1240,10.49,14.33,11.04
711,1299892629,0.7725,0.2837,-0.1182,10.24,14.09,10.06
712,1299897630,0.7231,0.2949,-0.1113,9.21,14.27,9.63
713,1299902629,0.6797,0.3125,-0.1152,6.59,14.45,9.57
714,1299907628,0.6577,0.3252,-0.1353,2.56,14.76,9.70
715,1299912629,0.6372,0.3291,-0.1299,-1.65,15.06,9.88
716,1299917628,0.6289,0.3320,-0.1260,-5.55,15.18,10.18
717,1299922630,0.6250,0.3345,-0.1318,-8.66,15.18,10.30
718,1299927628,0.6235,0.3403,-0.1265,-11.40,14.94,10.55
719,1299932627,0.6245,0.3516,-0.1226,-13.60,14.57,10.55
720,1299937628,0.6216,0.3667,-0.1133,-15.49,13.96,10.43
721,1299942630,0.6123,0.3730,-0.1128,-17.68,13.23,10.18
722,1299947627,0.6011,0.3823,-0.1118,-20.67,12.56,10.06
723,1299952627,0.5952,0.3911,-0.1128,-23.72,11.65,9.76
724,1299957631,0.6108,0.3960,-0.1191,-25.85,10.79,9.39
725,1299962628,0.6094,0.3887,-0.1196,-26.83,10.30,8.84
726,1299967627,0.5981,0.3706,-0.1421,-27.07,10.06,8.29
727,1299972627,0.6030,0.3501,-0.1650,-27.13,9.94,7.74
728,1299977631,0.6055,0.3154,-0.1812,-27.13,10.43,7.07
729,1299982628,0.6060,0.2861,-0.1909,-27.80,11.10,6.34
730,1299987627,0.6060,0.2671,-0.2095,-29.51,12.13,5.30
731,1299992629,0.6025,0.2402,-0.2153,-32.62,13.29,4.02
732,1299997629,0.5981,0.2197,-0.2227,-36.65,14.39,2.32
733,1300002628,0.6074,0.2114,-0.2197,-40.67,15.37,0.30
734,1300007627,0.6172,0.2085,-0.2275,-44.15,16.10,-2.07
735,1300012630,0.6206,0.2202,-0.2236,-46.04,16.71,-4.63
736,1300017629,0.6167,0.2422,-0.1968,-46.22,16.89,-7.26
737,1300022629,0.6123,0.2705,-0.1641,-44.15,17.26,-9.94
738,1300027627,0.6074,0.2988,-0.1562,-41.46,17.13,-12.50
739,1300032629,0.5952,0.3257,-0.1284,-39.39,16.89,-15.06
740,1300037629,0.5762,0.3525,-0.1113,-38.78,16.52,-17.44
741,1300042632,0.5654,0.3701,-0.0991,-39.57,15.98,-19.51
742,1300047630,0.5503,0.3770,-0.0791,-41.52,15.43,-21.16
743,1300052627,0.5386,0.3760,-0.0835,-44.27,15.06,-22.38
744,1300057631,0.5356,0.3687,-0.0913,-47.74,14.45,-23.11
745,1300062629,0.5527,0.3618,-0.0942,-51.65,14.15,-23.60
746,1300067627,0.5918,0.3574,-0.1123,-55.06,14.02,-24.21
747,1300072627,0.6479,0.3584,-0.1157,-57.80,14.33,-25.12
748,1300077628,0.6929,0.3721,-0.1187,-59.63,15.12,-26.71
749,1300082630,0.7183,0.3838,-0.1201,-61.22,15.91,-28.84
750,1300087627,0.7207,0.4097,-0.1230,-63.41,17.01,-31.16
751,1300092629,0.7139,0.4512,-0.1187,-66.34,17.87,-33.96
752,1300097627,0.7051,0.4995,-0.1118,-70.00,18.60,-36.65
753,1300102627,0.6685,0.5508,-0.1074,-73.35,18.96,-39.39
754,1300107627,0.6221,0.5928,-0.1060,-75.30,18.48,-41.83
755,1300112627,0.5762,0.6294,-0.1118,-74.76,17.56,-43.60
756,1300117627,0.5327,0.6416,-0.1089,-71.40,16.28,-44.76
757,1300122628,0.4980,0.6338,-0.1138,-65.61,14.39,-45.06
758,1300127627,0.4805,0.6206,-0.1196,-59.15,12.56,-44.82
759,1300132627,0.4907,0.5991,-0.1274,-53.29,10.61,-43.96
760,1300137627,0.5171,0.5781,-0.1455,-49.63,8.72,-42.87
761,1300142630,0.5718,0.5688,-0.1523,-48.54,6.95,-42.01
762,1300147629,0.6172,0.5630,-0.1655,-49.94,5.43,-41.52
763,1300152630,0.6611,0.5693,-0.1665,-52.80,4.27,-41.52
764,1300157629,0.7129,0.5903,-0.1660,-55.98,3.23,-42.20
765,1300162627,0.7456,0.6221,-0.1494,-59.02,2.93,-43.11
766,1300167629,0.7524,0.6528,-0.1436,-61.71,2.87,-44.70
767,1300172628,0.7534,0.6899,-0.1367,-63.78,3.11,-46.40
768,1300177629,0.7456,0.7251,-0.1216,-65.43,3.72,-48.29
769,1300182627,0.7280,0.7485,-0.1128,-66.95,4.51,-50.24
770,1300187630,0.7080,0.7583,-0.1152,-69.02,5.67,-52.07
771,1300192627,0.6787,0.7378,-0.1289,-72.01,6.40,-53.66
772,1300197630,0.6445,0.7012,-0.1426,-75.67,7.13,-54.33
773,1300202627,0.6304,0.6738,-0.1538,-79.94,8.05,-54.33
774,1300207627,0.6523,0.6558,-0.1621,-85.06,8.78,-54.15
775,1300212627,0.6919,0.6494,-0.1870,-91.46,9.51,-53.84
776,1300217627,0.7456,0.6519,-0.2173,-98.60,10.00,-53.96
777,1300222627,0.8076,0.6689,-0.2324,-105.49,10.12,-54.57
778,1300227632,0.8794,0.6929,-0.2378,-111.04,10.00,-55.91
779,1300232627,0.9243,0.7178,-0.2480,-114.21,9.76,-57.87
780,1300237627,0.9287,0.7515,-0.2471,-114.45,9.57,-60.06
781,1300242627,0.9341,0.8022,-0.2354,-111.95,8.78,-62.26
782,1300247757,0.9331,0.8628,-0.2217,-106.71,8.35,-64.70
783,1300252629,0.9023,0.9146,-0.2021,-99.33,7.62,-66.77
784,1300257628,0.8511,0.9775,-0.1729,-90.43,6.89,-68.41
785,1300262629,0.7939,1.0288,-0.1514,-81.10,6.28,-69.51
786,1300267627,0.7363,1.0698,-0.1265,-72.07,5.49,-69.88
787,1300272627,0.6675,1.0903,-0.1006,-63.78,4.39,-69.57
788,1300277627,0.6045,1.0806,-0.0923,-57.80,3.23,-68.05
789,1300282627,0.5435,1.0811,-0.0747,-55.00,1.89,-65.79
790,1300287631,0.5200,1.0659,-0.0742,-56.28,0.06,-63.11
791,1300292628,0.5454,1.0576,-0.0850,-61.59,-1.71,-60.24
792,1300297627,0.5859,1.0532,-0.1040,-70.55,-3.72,-57.74
793,1300302627,0.6445,1.0376,-0.1216,-81.10,-5.85,-55.55
794,1300307627,0.7002,1.0293,-0.1343,-91.10,-7.74,-54.09
795,1300312629,0.7534,1.0190,-0.1426,-98.48,-9.33,-53.05
796,1300317630,0.7944,1.0078,-0.1494,-102.38,-10.55,-52.68
797,1300322628,0.8101,1.0127,-0.1538,-102.01,-11.65,-52.26
798,1300327627,0.8135,1.0205,-0.1519,-98.23,-12.20,-52.13
799,1300332627,0.7876,1.0337,-0.1543,-92.44,-12.68,-51.89
800,1300337630,0.7651,1.0547,-0.1533,-85.43,-13.23,-51.59
801,1300342627,0.7383,1.0669,-0.1470,-77.56,-13.60,-51.16
802,1300347627,0.7041,1.0840,-0.1304,-69.21,-14.02,-50.30
803,1300352628,0.6646,1.0884,-0.1143,-60.55,-13.90,-49.27
804,1300357630,0.6245,1.0884,-0.1113,-52.13,-13.90,-47.93
805,1300362629,0.5752,1.0830,-0.0981,-44.76,-13.78,-46.28
806,1300367739,0.5317,1.0664,-0.0879,-39.02,-13.66,-44.21
807,1300372629,0.4805,1.0400,-0.0771,-35.61,-13.41,-41.89
808,1300377629,0.4341,1.0112,-0.0786,-35.55,-13.05,-39.45
809,1300382628,0.4077,0.9878,-0.0869,-39.70,-12.80,-36.65
810,1300387629,0.4180,0.9727,-0.0850,-47.13,-12.68,-33.96
811,1300392628,0.4385,0.9653,-0.0786,-57.26,-12.50,-31.46
812,1300397627,0.4541,0.9580,-0.0776,-68.78,-12.38,-29.15
813,1300402627,0.4717,0.9585,-0.0850,-80.85,-12.26,-26.95
814,1300407627,0.5049,0.9512,-0.0918,-91.71,-12.50,-25.00
815,1300412627,0.5356,0.9429,-0.0933,-99.57,-12.62,-23.11
816,1300417629,0.5527,0.9351,-0.0991,-103.48,-12.68,-21.46
817,1300422627,0.5649,0.9248,-0.0884,-102.74,-12.62,-19.70
818,1300427627,0.5698,0.9199,-0.0859,-97.93,-12.50,-18.23
819,1300432627,0.5669,0.9058,-0.0850,-90.24,-12.32,-16.71
820,1300437627,0.5698,0.8857,-0.0815,-80.18,-12.01,-15.30
821,1300442628,0.5796,0.8672,-0.0806,-68.90,-11.65,-14.21
822,1300447627,0.5854,0.8486,-0.0586,-57.62,-11.22,-13.23
823,1300452767,0.5801,0.8223,-0.0518,-47.50,-10.49,-12.56
824,1300457632,0.5674,0.7920,-0.0454,-39.70,-9.57,-12.20
825,1300462629,0.5640,0.7695,-0.0449,-35.00,-8.66,-12.13
826,1300467631,0.5649,0.7534,-0.0298,-33.72,-7.56,-12.26
827,1300472627,0.5332,0.7241,-0.0239,-35.98,-6.34,-12.56
828,1300477676,0.5020,0.7026,-0.0107,-42.07,-5.06,-12.62
829,1300482628,0.4863,0.6890,-0.0112,-51.34,-4.27,-12.44
830,1300487627,0.4795,0.6855,-0.0083,-63.11,-3.72,-12.20
831,1300492631,0.4761,0.6831,-0.0103,-76.16,-3.29,-11.71
832,1300497629,0.4937,0.6929,-0.0063,-89.27,-3.23,-11.16
833,1300502628,0.5166,0.7017,-0.0127,-101.34,-3.29,-10.61
834,1300507631,0.5483,0.7153,-0.0259,-110.73,-3.78,-10.18
835,1300512627,0.5884,0.7158,-0.0366,-115.98,-4.27,-9.88
836,1300517627,0.6294,0.7217,-0.0376,-116.04,-5.06,-9.82
837,1300522627,0.6685,0.7188,-0.0317,-110.49,-5.79,-9.88
838,1300527627,0.7026,0.7183,-0.0278,-100.12,-6.59,-9.94
839,1300532627,0.7222,0.7202,-0.0166,-86.16,-6.95,-10.18
840,1300537627,0.7300,0.7227,-0.0005,-70.98,-7.32,-10.37
841,1300542627,0.7324,0.7256,0.0190,-56.71,-7.62,-10.85
842,1300547627,0.7319,0.7358,0.0293,-45.30,-8.11,-11.40
843,1300552630,0.7139,0.7432,0.0420,-38.23,-8.54,-12.13
844,1300557628,0.6973,0.7495,0.0630,-35.79,-8.90,-12.80
845,1300562628,0.6831,0.7529,0.0757,-37.44,-9.27,-13.35
846,1300567629,0.6660,0.7559,0.0864,-42.80,-9.51,-13.66
847,1300572628,0.6519,0.7524,0.0908,-50.67,-9.63,-13.84
848,1300577627,0.6445,0.7568,0.0825,-60.43,-10.00,-13.96
849,1300582627,0.6665,0.7549,0.0801,-70.49,-10.37,-13.78
850,1300587629,0.6909,0.7661,0.0820,-79.76,-10.55,-13.90
851,1300592627,0.7217,0.7729,0.0737,-87.38,-11.10,-14.02
852,1300597627,0.7656,0.7817,0.0688,-92.99,-11.65,-14.27
853,1300602629,0.8091,0.7896,0.0645,-96.28,-12.44,-14.51
854,1300607629,0.8545,0.7998,0.0610,-96.89,-13.48,-14.88
855,1300612629,0.8984,0.8091,0.0664,-94.76,-14.33,-15.43
856,1300617628,0.9316,0.8198,0.0854,-90.12,-15.37,-15.98
857,1300622629,0.9526,0.8340,0.0981,-83.54,-16.10,-16.34
858,1300627628,0.9536,0.8447,0.1069,-75.85,-16.83,-16.77
859,1300632630,0.9565,0.8530,0.1147,-67.56,-17.80,-17.07
860,1300637629,0.9702,0.8643,0.1367,-59.33,-18.48,-17.26
861,1300642627,0.9692,0.8740,0.1450,-51.71,-18.96,-17.20
862,1300647629,0.9585,0.8828,0.1626,-45.73,-19.39,-16.95
863,1300652628,0.9521,0.8940,0.1851,-42.32,-19.70,-16.71
864,1300657627,0.9502,0.9023,0.2075,-41.52,-19.88,-16.28
865,1300662627,0.9312,0.9087,0.2246,-43.90,-19.88,-15.67
866,1300667627,0.9092,0.9082,0.2354,-49.21,-19.76,-14.82
867,1300672627,0.8906,0.9150,0.2446,-56.59,-19.82,-13.60
868,1300677631,0.8813,0.9263,0.2622,-64.88,-19.82,-12.13
869,1300682627,0.8706,0.9282,0.2822,-72.93,-19.82,-10.37
870,1300687629,0.8760,0.9360,0.2812,-80.06,-19.82,-8.48
871,1300692628,0.8975,0.9375,0.2861,-86.10,-20.18,-6.34
872,1300697627,0.9229,0.9370,0.2900,-90.43,-20.55,-4.09
873,1300702627,0.9595,0.9380,0.3027,-92.87,-20.98,-1.95
874,1300707629,0.9985,0.9453,0.3096,-93.23,-21.59,0.18
875,1300712627,1.0303,0.9414,0.3169,-92.01,-22.50,2.13
876,1300717629,1.0718,0.9365,0.3188,-89.76,-23.54,4.02
877,1300722628,1.1035,0.9385,0.3320,-86.95,-24.63,5.73
878,1300727630,1.1206,0.9336,0.3550,-83.90,-25.73,7.26
879,1300732627,1.1309,0.9404,0.3687,-80.98,-27.13,8.96
880,1300737627,1.1323,0.9478,0.3887,-79.09,-28.54,10.49
881,1300742627,1.1353,0.9619,0.4077,-78.23,-30.30,12.13
882,1300747627,1.1260,0.9771,0.4106,-79.21,-32.07,13.84
883,1300752627,1.1128,0.9902,0.4204,-82.07,-33.90,15.61
884,1300757631,1.1045,1.0054,0.4238,-86.83,-35.98,17.32
885,1300762628,1.0850,1.0103,0.4268,-92.56,-37.93,19.21
886,1300767629,1.0679,1.0151,0.4341,-98.05,-39.88,21.40
887,1300772627,1.0547,1.0054,0.4399,-102.56,-41.71,23.54
888,1300777627,1.0488,0.9976,0.4360,-105.61,-43.35,25.79
889,1300782629,1.0386,0.9888,0.4307,-106.59,-44.94,28.23
890,1300787629,1.0171,0.9727,0.4321,-105.67,-46.46,30.67
891,1300792628,0.9946,0.9551,0.4331,-103.05,-47.87,32.93
892,1300797631,0.9824,0.9409,0.4331,-99.39,-49.09,35.49
893,1300802627,0.9766,0.9258,0.4346,-95.18,-50.37,37.99
894,1300807629,0.9634,0.9097,0.4409,-91.10,-51.52,40.24
895,1300812628,0.9497,0.8926,0.4463,-87.87,-52.62,42.50
896,1300817629,0.9507,0.8823,0.4551,-85.73,-53.66,44.51
897,1300822627,0.9712,0.8784,0.4561,-85.12,-54.57,46.10
898,1300827629,0.9756,0.8760,0.4580,-86.59,-55.61,47.38
899,1300832628,0.9678,0.8667,0.4468,-89.76,-56.40,48.35
900,1300837631,0.9556,0.8647,0.4434,-94.09,-57.01,49.21
901,1300842627,0.9502,0.8706,0.4448,-98.78,-57.44,49.88
902,1300847627,0.9365,0.8667,0.4292,-103.60,-57.62,50.49
903,1300852627,0.9116,0.8662,0.4180,-108.11,-57.80,51.10
904,1300857857,0.8955,0.8599,0.4072,-111.77,-57.93,51.83
905,1300862629,0.8877,0.8545,0.4058,-114.21,-57.74,52.56
906,1300867656,0.8667,0.8540,0.4087,-115.67,-57.68,53.41
907,1300872629,0.8359,0.8462,0.4111,-116.34,-57.38,54.45
908,1300877628,0.8008,0.8496,0.3940,-116.89,-57.32,55.55
909,1300882627,0.7686,0.8481,0.3921,-117.50,-57.26,56.83
910,1300887627,0.7368,0.8486,0.3877,-118.05,-57.50,58.29
911,1300892629,0.7124,0.8491,0.3862,-118.66,-57.87,59.76
912,1300897627,0.6841,0.8496,0.3740,-119.51,-58.35,61.28
913,1300902627,0.6567,0.8452,0.3696,-120.18,-59.21,62.87
914,1300907627,0.6470,0.8457,0.3564,-120.37,-60.30,64.27
915,1300912629,0.6523,0.8433,0.3481,-119.94,-61.46,65.43
916,1300917628,0.6470,0.8364,0.3389,-118.60,-62.62,66.59
917,1300922627,0.6353,0.8247,0.3398,-116.46,-64.09,67.68
918,1300927627,0.6426,0.8110,0.3315,-113.41,-65.37,68.54
919,1300932631,0.6514,0.7993,0.3164,-109.51,-67.07,69.27
920,1300937627,0.6646,0.7837,0.3057,-104.82,-68.84,69.76
921,1300942630,0.6753,0.7769,0.2964,-100.00,-70.49,69.82
922,1300947629,0.6841,0.7622,0.2803,-95.06,-71.89,69.76
923,1300952629,0.6831,0.7524,0.2500,-90.79,-73.17,69.57
924,1300957628,0.6777,0.7373,0.2231,-87.26,-74.45,69.15
925,1300962629,0.6685,0.7192,0.2021,-83.60,-75.67,68.84
926,1300967627,0.6494,0.7090,0.1821,-79.82,-76.65,68.48
927,1300972733,0.6431,0.6909,0.1562,-75.43,-77.44,68.11
928,1300977629,0.6455,0.6650,0.1338,-70.85,-77.99,67.80
929,1300982627,0.6426,0.6440,0.1147,-66.40,-78.54,67.50
930,1300987627,0.6416,0.6187,0.0908,-62.38,-78.84,67.01
931,1300992627,0.6328,0.5952,0.0757,-58.60,-78.72,66.46
932,1300997628,0.6274,0.5791,0.0596,-55.43,-78.54,65.91
933,1301002628,0.6245,0.5562,0.0391,-52.93,-78.29,65.18
934,1301007627,0.6143,0.5396,0.0171,-51.65,-77.87,64.33
935,1301012759,0.6030,0.5273,-0.0098,-51.22,-77.20,63.48
936,1301017629,0.5967,0.5220,-0.0386,-51.52,-76.52,62.50
937,1301022628,0.5923,0.5112,-0.0684,-51.77,-75.91,61.34
938,1301027629,0.5732,0.5024,-0.0972,-51.22,-75.30,60.43
939,1301032628,0.5645,0.4893,-0.1338,-49.09,-74.39,59.33
940,1301037765,0.5581,0.4819,-0.1572,-44.88,-73.48,58.41
941,1301042628,0.5503,0.4668,-0.1816,-38.48,-72.32,57.62
942,1301047627,0.5400,0.4526,-0.2070,-30.49,-70.79,56.89
943,1301052627,0.5420,0.4448,-0.2251,-21.59,-69.15,56.22
944,1301057627,0.5332,0.4258,-0.2456,-12.74,-67.32,55.43
945,1301062627,0.5137,0.4067,-0.2637,-4.88,-65.30,54.51
946,1301067627,0.5098,0.3892,-0.2710,1.34,-63.05,53.54
947,1301072627,0.5073,0.3745,-0.2891,5.18,-60.98,52.38
948,1301077627,0.5083,0.3604,-0.2998,6.83,-58.60,51.10
949,1301082627,0.5200,0.3623,-0.3086,6.65,-56.10,49.51
950,1301087627,0.5234,0.3594,-0.3218,5.18,-53.48,47.74
951,1301092627,0.5215,0.3623,-0.3335,3.60,-50.67,45.91
952,1301097627,0.5200,0.3755,-0.3384,2.56,-47.80,44.15
953,1301102631,0.5308,0.3867,-0.3442,2.62,-44.57,42.44
954,1301107629,0.5303,0.3979,-0.3560,4.27,-41.22,40.79
955,1301112629,0.5288,0.4072,-0.3652,7.32,-37.68,39.39
956,1301117629,0.5298,0.4053,-0.3755,11.46,-33.96,38.23
957,1301122627,0.5322,0.4097,-0.3872,15.49,-29.76,36.89
958,1301127627,0.5376,0.4014,-0.4082,18.90,-25.61,35.73
959,1301132627,0.5347,0.3911,-0.4185,21.40,-21.52,34.45
960,1301137629,0.5293,0.3828,-0.4341,23.29,-17.26,33.05
961,1301142744,0.5205,0.3711,-0.4370,24.82,-12.99,31.52
962,1301147629,0.5146,0.3516,-0.4463,25.98,-8.60,29.94
963,1301152627,0.5103,0.3408,-0.4414,27.26,-4.27,28.29
964,1301157627,0.5088,0.3330,-0.4414,28.41,0.06,26.46
965,1301162627,0.5098,0.3237,-0.4360,29.63,4.39,24.45
966,1301167627,0.4971,0.3174,-0.4321,30.43,8.78,22.56
967,1301172627,0.4780,0.3096,-0.4199,30.55,12.93,20.61
968,1301177627,0.4658,0.3042,-0.4180,29.88,17.07,18.66
969,1301182631,0.4663,0.2993,-0.4248,28.72,21.16,16.65
970,1301187631,0.4761,0.3042,-0.4121,27.50,25.06,14.63
971,1301192627,0.4907,0.3105,-0.3970,26.71,29.21,12.38
972,1301197635,0.5039,0.3262,-0.3901,26.59,33.23,10.00
973,1301202627,0.5005,0.3281,-0.3882,26.89,37.20,7.74
974,1301207627,0.5122,0.3306,-0.3911,28.41,40.85,5.55
975,1301212627,0.5122,0.3438,-0.3794,31.83,44.57,3.41
976,1301217627,0.5195,0.3525,-0.3706,36.77,48.29,1.34
977,1301222943,0.5249,0.3589,-0.3608,43.17,51.71,-0.73
978,1301227629,0.5381,0.3623,-0.3574,49.94,55.49,-2.87
979,1301232628,0.5479,0.3706,-0.3486,56.59,59.02,-4.94
980,1301237627,0.5508,0.3770,-0.3438,62.20,62.44,-7.20
981,1301242653,0.5571,0.3779,-0.3301,66.40,65.73,-9.63
982,1301247629,0.5522,0.3843,-0.3184,68.96,68.90,-12.07
983,1301252628,0.5552,0.3857,-0.3086,69.94,71.83,-14.76
984,1301257627,0.5522,0.3813,-0.2998,70.00,74.57,-17.38
985,1301262629,0.5625,0.3804,-0.2837,69.63,77.13,-20.06
986,1301267631,0.5713,0.3838,-0.2720,69.39,79.57,-22.87
987,1301272632,0.5786,0.3721,-0.2598,69.76,82.13,-25.73
988,1301277627,0.5850,0.3687,-0.2480,70.55,85.43,-28.48
989,1301282627,0.5898,0.3672,-0.2441,72.01,86.34,-31.52
990,1301287627,0.5928,0.3730,-0.2354,73.84,89.09,-34.45
991,1301292627,0.6011,0.3833,-0.2104,76.22,91.40,-37.62
992,1301297627,0.6079,0.3955,-0.1968,78.72,93.54,-40.55
993,1301302631,0.5967,0.4033,-0.1831,81.22,95.67,-43.54
994,1301307629,0.5933,0.4175,-0.1704,83.35,97.26,-46.22
995,1301312804,0.5977,0.4365,-0.1572,85.43,98.90,-48.84
996,1301317628,0.6094,0.4604,-0.1421,87.80,100.12,-51.34
997,1301322627,0.6187,0.4878,-0.1221,90.79,101.16,-53.84
998,1301327977,0.6147,0.5029,-0.1128,94.45,102.32,-56.16
999,1301332629,0.6084,0.5176,-0.0972,98.35,103.23,-58.29
1000,1301337629,0.6147,0.5269,-0.0947,102.32,104.21,-60.30
1001,1301342628,0.6201,0.5396,-0.0859,106.40,105.12,-62.13
1002,1301347627,0.6299,0.5571,-0.0728,110.79,106.04,-63.96
1003,1301352629,0.6396,0.5762,-0.0503,115.18,107.07,-65.85
1004,1301357628,0.6372,0.5947,-0.0415,119.15,108.05,-67.80
1005,1301362627,0.6177,0.6226,-0.0259,122.50,108.78,-69.39
1006,1301367628,0.6011,0.6377,-0.0098,124.88,109.45,-70.91
1007,1301372631,0.5894,0.6606,0.0068,126.52,110.00,-72.01
1008,1301377628,0.5771,0.6860,0.0176,127.26,110.24,-72.99
1009,1301382631,0.5684,0.7036,0.0439,128.78,110.43,-73.60
1010,1301387627,0.5620,0.7256,0.0713,129.39,110.73,-74.09
1011,1301392647,0.5601,0.7480,0.0845,130.00,110.73,-74.45
1012,1301397627,0.5669,0.7700,0.1016,130.06,110.61,-74.63
1013,1301402627,0.5762,0.7949,0.1191,130.06,110.43,-74.63
1014,1301407629,0.5894,0.8247,0.1270,131.77,110.24,-74.57
1015,1301412629,0.5884,0.8477,0.1484,132.62,110.30,-74.51
