# skilleye imu stream v1
# device=xiao_esp32c6 imu=mpu6050 addr=0x68
# rate_hz=200 accel_range_g=16 gyro_range_dps=2000 dlpf_hz=94
# units: accel in g, gyro in deg/s, t_us in microseconds since boot (monotonic)
# no shared clock with the camera -- tap the racket once before each take
# so both recordings share a spike to align on
seq,t_us,ax,ay,az,gx,gy,gz
0,1419732629,0.6157,0.8931,0.2822,2.93,6.65,13.54
1,1419737635,0.6211,0.8794,0.2803,0.00,7.26,13.23
2,1419742629,0.6172,0.8662,0.2817,-2.87,8.05,12.87
3,1419747627,0.6113,0.8579,0.2842,-5.43,8.96,12.44
4,1419752627,0.6035,0.8481,0.2871,-7.44,9.70,12.13
5,1419757627,0.6001,0.8335,0.2959,-8.78,10.73,11.65
6,1419762627,0.5996,0.8281,0.2988,-9.39,11.34,11.10
7,1419767627,0.5957,0.8086,0.3096,-9.57,11.89,10.55
8,1419772627,0.5977,0.8076,0.3101,-9.15,12.07,9.94
9,1419777627,0.5972,0.8008,0.3174,-8.48,12.20,9.33
10,1419782627,0.5952,0.7993,0.3169,-7.62,12.01,8.78
11,1419787631,0.5923,0.7949,0.3232,-6.59,11.77,8.05
12,1419792629,0.5869,0.7910,0.3315,-5.37,11.22,7.26
13,1419797629,0.5767,0.7905,0.3354,-4.15,10.79,6.52
14,1419802628,0.5693,0.7949,0.3340,-3.05,10.24,5.98
15,1419807629,0.5728,0.8042,0.3286,-2.44,9.51,5.49
16,1419812629,0.5723,0.8086,0.3237,-2.38,8.78,5.00
17,1419817629,0.5601,0.8096,0.3276,-2.93,8.11,4.57
18,1419822629,0.5605,0.8276,0.3076,-3.60,7.07,4.02
19,1419827629,0.5527,0.8003,0.3413,-4.27,6.28,3.41
20,1419832629,0.5498,0.8062,0.3237,-5.37,5.79,3.23
21,1419837627,0.5596,0.8315,0.3213,-6.89,5.30,2.74
22,1419842631,0.5830,0.8530,0.3110,-7.93,4.82,2.01
23,1419847627,0.5635,0.8477,0.3203,-8.41,4.39,1.28
24,1419852627,0.5425,0.8203,0.3335,-8.48,4.15,0.55
25,1419857629,0.5312,0.7817,0.3062,-8.17,3.78,0.43
26,1419862631,0.5122,0.8062,0.3086,-7.56,3.66,0.55
27,1419867629,0.5020,0.8281,0.3086,-6.83,3.84,0.79
28,1419872629,0.4976,0.8311,0.2910,-5.91,4.09,0.85
29,1419877650,0.4966,0.8306,0.2974,-4.94,4.45,1.10
30,1419882629,0.4858,0.8262,0.2949,-3.72,4.76,1.16
31,1419887629,0.4839,0.8291,0.2905,-2.32,4.88,1.40
32,1419892629,0.4819,0.8379,0.2988,-0.67,5.18,1.52
33,1419897629,0.4878,0.8501,0.3110,0.91,5.30,1.52
34,1419902629,0.4951,0.8618,0.3169,2.32,5.37,1.22
35,1419907627,0.5029,0.8740,0.3228,3.17,5.67,0.98
36,1419912629,0.5107,0.8862,0.3213,3.17,5.67,0.43
37,1419917629,0.5093,0.9053,0.3062,2.62,5.79,-0.30
38,1419922628,0.5166,0.8774,0.3330,1.77,5.91,-0.79
39,1419927629,0.5176,0.8828,0.3145,0.67,6.10,-1.10
40,1419932628,0.5195,0.9014,0.2939,-0.61,6.28,-1.04
41,1419937629,0.5239,0.9214,0.2979,-1.83,6.65,-0.73
42,1419942629,0.5273,0.9375,0.2993,-3.05,7.07,-0.37
43,1419947629,0.5337,0.9385,0.3018,-3.90,7.62,0.06
44,1419952627,0.5254,0.9336,0.2900,-4.45,8.11,0.73
45,1419957630,0.5259,0.9292,0.2910,-4.82,8.72,1.40
46,1419962662,0.5146,0.9258,0.2891,-4.94,9.33,2.13
47,1419967627,0.5127,0.9258,0.2788,-4.70,9.82,2.80
48,1419972629,0.5044,0.9111,0.2812,-4.09,10.43,3.41
49,1419977630,0.4912,0.9028,0.2837,-3.41,10.91,4.15
50,1419982629,0.4883,0.9043,0.2744,-2.74,11.59,4.76
51,1419987627,0.4771,0.9111,0.2773,-1.95,11.95,5.18
52,1419992629,0.4785,0.9185,0.2871,-1.46,12.38,5.43
53,1419997629,0.4868,0.9316,0.2925,-1.04,12.56,5.18
54,1420002629,0.4780,0.9453,0.3003,-0.37,12.80,4.76
55,1420007627,0.4482,0.9282,0.3032,0.18,12.68,3.84
56,1420012629,0.4502,0.9194,0.3032,0.91,12.44,2.99
57,1420017627,0.4824,0.9219,0.3125,1.22,12.01,2.20
58,1420022627,0.5078,0.9351,0.3091,1.04,11.71,1.46
59,1420027627,0.5234,0.9468,0.3120,1.16,11.65,0.67
60,1420032629,0.5254,0.9390,0.3022,1.22,11.83,0.12
61,1420037629,0.5181,0.9365,0.2910,1.46,12.26,-0.06
62,1420042629,0.5127,0.9341,0.2778,1.83,12.87,-0.06
63,1420047627,0.5049,0.9263,0.2729,2.38,13.60,0.18
64,1420052627,0.4990,0.9150,0.2656,2.68,14.39,0.43
65,1420057629,0.4961,0.9126,0.2642,2.80,14.82,0.73
66,1420062629,0.4844,0.9346,0.2622,2.80,14.94,0.79
67,1420067627,0.4668,0.9414,0.2734,2.74,14.51,0.43
68,1420072629,0.4458,0.9106,0.2764,2.50,13.84,-0.12
69,1420077631,0.4209,0.9009,0.2612,1.83,12.62,-0.30
70,1420082628,0.4131,0.9009,0.2563,0.91,11.10,-0.30
71,1420087627,0.4199,0.9160,0.2666,0.12,9.57,0.06
72,1420092627,0.4360,0.9282,0.2646,-0.67,8.11,0.55
73,1420097627,0.4424,0.9341,0.2578,-1.40,7.01,1.34
74,1420102627,0.4453,0.9385,0.2505,-2.13,6.04,2.38
75,1420107697,0.4443,0.9463,0.2432,-2.99,5.55,3.72
76,1420112627,0.4419,0.9458,0.2451,-3.60,5.43,5.06
77,1420117627,0.4404,0.9565,0.2441,-3.96,5.61,6.40
78,1420122692,0.4492,0.9639,0.2524,-3.60,5.85,7.62
79,1420127628,0.4497,0.9678,0.2632,-2.80,6.65,8.84
80,1420132630,0.4556,0.9668,0.2617,-1.40,7.56,9.94
81,1420137627,0.4526,0.9600,0.2695,0.12,8.54,10.91
82,1420142627,0.4512,0.9590,0.2686,1.77,9.51,12.01
83,1420147627,0.4463,0.9546,0.2544,3.41,10.67,13.17
84,1420152631,0.4341,0.9341,0.2534,4.45,11.34,14.33
85,1420157628,0.4253,0.9238,0.2495,5.00,11.52,15.73
86,1420162627,0.4189,0.9194,0.2529,5.18,11.40,17.20
87,1420167686,0.4209,0.9229,0.2529,5.00,10.73,18.72
88,1420172629,0.4209,0.9229,0.2627,4.02,10.00,20.06
89,1420177627,0.4204,0.9282,0.2676,2.44,8.84,21.34
90,1420182627,0.4287,0.9297,0.2783,-0.24,7.68,22.50
91,1420187629,0.4351,0.9243,0.2812,-3.60,6.71,23.29
92,1420192628,0.4370,0.9243,0.2676,-7.68,5.55,23.96
93,1420197633,0.4429,0.9336,0.2603,-12.01,4.51,24.51
94,1420202628,0.4263,0.9336,0.2642,-16.10,3.78,25.06
95,1420207628,0.4180,0.9272,0.2559,-19.39,3.11,25.73
96,1420212629,0.4072,0.9214,0.2402,-21.89,2.44,26.65
97,1420217628,0.4053,0.9180,0.2417,-23.54,1.95,27.93
98,1420222629,0.4033,0.9170,0.2363,-24.09,1.65,29.15
99,1420227628,0.4072,0.9214,0.2383,-23.72,1.16,30.37
100,1420232627,0.4043,0.9111,0.2373,-22.50,1.04,31.34
101,1420237631,0.3960,0.9097,0.2451,-20.43,0.98,32.13
102,1420242630,0.3877,0.8970,0.2505,-17.99,1.04,32.62
103,1420247760,0.3848,0.8818,0.2568,-15.49,0.73,32.93
104,1420252629,0.3940,0.8711,0.2534,-12.80,0.37,32.99
105,1420257628,0.3970,0.8623,0.2661,-10.49,-0.12,32.99
106,1420262630,0.3960,0.8550,0.2627,-8.23,-0.91,32.80
107,1420267630,0.3999,0.8447,0.2695,-6.40,-1.65,32.50
108,1420272629,0.3916,0.8330,0.2769,-5.00,-2.56,32.07
109,1420277629,0.3901,0.8301,0.2734,-4.15,-3.35,31.65
110,1420282977,0.3872,0.8306,0.2744,-3.72,-4.09,30.91
111,1420287629,0.3911,0.8330,0.2852,-3.90,-5.06,30.24
112,1420292652,0.3921,0.8359,0.2876,-4.57,-5.98,29.63
113,1420297630,0.3853,0.8389,0.2944,-5.73,-6.77,28.84
114,1420302629,0.3838,0.8413,0.2959,-7.44,-7.62,28.05
115,1420307629,0.3828,0.8506,0.3008,-9.57,-8.60,26.95
116,1420312628,0.3765,0.8550,0.3096,-12.13,-9.51,25.79
117,1420317629,0.3682,0.8633,0.3105,-14.82,-10.55,24.15
118,1420322629,0.3652,0.8584,0.3237,-17.50,-11.89,22.13
119,1420327629,0.3789,0.8555,0.3022,-19.51,-13.78,19.70
120,1420332628,0.3999,0.8687,0.3398,-20.98,-15.91,16.46
121,1420337629,0.4292,0.8335,0.3765,-21.40,-17.87,12.74
122,1420342629,0.4448,0.8213,0.3457,-21.34,-19.27,9.39
123,1420347629,0.4663,0.8047,0.3237,-21.22,-19.76,6.10
124,1420352667,0.4697,0.8081,0.3008,-21.10,-19.39,3.48
125,1420357629,0.4546,0.8306,0.2754,-20.79,-18.60,1.28
126,1420362627,0.4370,0.8335,0.2695,-19.82,-17.44,-0.91
127,1420367631,0.4150,0.8228,0.2920,-18.11,-16.10,-2.74
128,1420372628,0.4072,0.8394,0.3018,-15.73,-14.57,-4.39
129,1420377627,0.4185,0.9150,0.3286,-13.48,-12.38,-6.83
130,1420382627,0.4087,0.8745,0.2915,-11.71,-9.88,-10.00
131,1420387629,0.3804,0.8105,0.2695,-10.79,-7.74,-12.26
132,1420392628,0.3721,0.8267,0.2520,-9.94,-6.22,-14.15
133,1420397629,0.3652,0.8286,0.2529,-8.78,-4.51,-15.61
134,1420402627,0.3608,0.8555,0.2476,-7.01,-2.80,-16.83
135,1420407631,0.3535,0.8687,0.2368,-5.30,-1.04,-17.80
136,1420412628,0.3330,0.8721,0.2319,-3.17,0.79,-18.60
137,1420417629,0.3047,0.8867,0.2290,-1.22,2.44,-19.02
138,1420422628,0.2856,0.8877,0.2266,0.73,4.09,-19.51
139,1420427629,0.2764,0.8979,0.2173,2.32,5.91,-19.82
140,1420432629,0.2729,0.9009,0.2339,3.41,7.44,-20.30
141,1420437629,0.2861,0.9092,0.2373,4.33,8.72,-20.73
142,1420442629,0.2979,0.9209,0.2437,5.00,9.82,-21.28
143,1420447629,0.2988,0.9297,0.2407,5.43,10.73,-21.77
144,1420452748,0.2905,0.9380,0.2373,5.79,11.59,-22.20
145,1420457631,0.2852,0.9429,0.2246,6.04,12.20,-22.32
146,1420462628,0.2754,0.9434,0.2231,6.28,12.50,-22.13
147,1420468143,0.2661,0.9478,0.2197,6.46,12.32,-21.71
148,1420472629,0.2524,0.9619,0.2217,6.77,12.07,-21.10
149,1420477628,0.2432,0.9746,0.2256,7.20,11.46,-20.43
150,1420482631,0.2275,0.9692,0.2266,7.93,10.73,-19.82
151,1420487628,0.2266,0.9590,0.2368,8.96,9.88,-19.09
152,1420492627,0.2188,0.9683,0.2397,10.12,9.21,-18.35
153,1420497627,0.2041,0.9976,0.2412,11.65,8.60,-18.05
154,1420502627,0.1953,0.9971,0.2461,12.93,8.29,-17.99
155,1420507629,0.1816,0.9673,0.2407,14.02,8.41,-17.68
156,1420512627,0.1660,0.9551,0.2251,14.57,8.41,-17.07
157,1420517627,0.1450,0.9473,0.2134,14.09,8.60,-16.34
158,1420522631,0.1528,0.9409,0.2134,12.38,8.72,-15.37
159,1420527629,0.1641,0.9360,0.2061,10.18,8.66,-14.57
160,1420532682,0.1680,0.9399,0.2139,7.80,8.60,-13.72
161,1420537628,0.1807,0.9404,0.2061,5.98,8.17,-13.11
162,1420542627,0.1899,0.9316,0.2090,5.49,7.74,-12.26
163,1420547631,0.1777,0.9243,0.2075,6.22,7.26,-11.59
164,1420552629,0.1704,0.9199,0.1997,8.17,6.71,-11.04
165,1420557628,0.1787,0.8984,0.1855,10.98,6.22,-10.79
166,1420562695,0.1909,0.8726,0.1895,14.33,5.98,-10.79
167,1420567635,0.2065,0.8511,0.1816,17.99,5.55,-11.04
168,1420572628,0.2280,0.8359,0.1860,21.77,5.49,-11.71
169,1420578120,0.2505,0.8418,0.2007,25.12,5.85,-12.56
170,1420582629,0.2676,0.8447,0.1958,27.80,5.61,-14.09
171,1420587629,0.2622,0.8354,0.1978,29.51,5.67,-15.49
172,1420592627,0.2427,0.8374,0.2012,30.00,5.91,-16.89
173,1420597628,0.2197,0.8389,0.1973,29.45,6.40,-18.35
174,1420602629,0.2314,0.8350,0.2056,28.05,6.83,-19.70
175,1420607628,0.2568,0.8462,0.2085,25.85,7.44,-21.16
176,1420612631,0.2778,0.8462,0.2163,23.54,7.99,-22.68
177,1420617628,0.2910,0.8481,0.2212,21.22,8.35,-24.33
178,1420622629,0.2983,0.8560,0.2300,19.45,8.90,-25.98
179,1420627628,0.2988,0.8525,0.2275,18.41,9.51,-27.38
180,1420632629,0.2983,0.8521,0.2319,17.99,9.94,-28.90
181,1420637628,0.2910,0.8613,0.2202,18.29,10.61,-30.30
182,1420642629,0.2871,0.8652,0.2266,18.96,11.28,-31.89
183,1420647629,0.2793,0.8682,0.2378,19.82,11.83,-33.29
184,1420652628,0.2627,0.8882,0.2388,20.61,12.68,-34.63
185,1420657655,0.2495,0.9097,0.2480,20.79,13.17,-35.85
186,1420662628,0.2451,0.9360,0.2617,20.49,13.84,-36.65
187,1420667627,0.2373,0.9668,0.2783,19.21,14.27,-37.26
188,1420672629,0.2246,0.9937,0.2964,17.38,14.45,-37.56
189,1420677627,0.2109,1.0249,0.2983,14.88,14.45,-37.32
190,1420682627,0.2124,1.0532,0.2988,12.07,14.39,-36.83
191,1420687627,0.2124,1.0781,0.3125,9.39,14.27,-35.85
192,1420692629,0.2095,1.1035,0.3179,6.89,13.66,-34.63
193,1420697627,0.2109,1.1216,0.3252,5.12,13.23,-33.11
194,1420702627,0.2397,1.1343,0.3438,4.70,12.50,-31.46
195,1420707627,0.2729,1.1484,0.3589,5.73,11.83,-29.82
196,1420712627,0.2949,1.1660,0.3838,7.93,11.28,-28.11
197,1420718348,0.2998,1.1880,0.4004,11.95,10.12,-25.91
198,1420722629,0.3115,1.2002,0.4150,15.30,9.33,-24.39
199,1420727627,0.3267,1.2222,0.4326,19.88,8.54,-22.32
200,1420732629,0.3398,1.2358,0.4551,24.45,7.62,-20.43
201,1420737628,0.2236,1.2217,0.6953,29.76,6.34,-18.41
202,1420742628,0.2505,1.2178,0.6987,37.74,5.24,-16.22
203,1420747627,0.2935,1.2441,0.4736,43.72,2.50,-13.84
204,1420752629,0.3008,1.2886,0.5864,46.59,0.00,-11.34
205,1420757627,0.2969,1.3091,0.5942,47.74,-1.71,-8.54
206,1420762627,0.3096,1.3750,0.4639,47.99,-3.90,-5.85
207,1420767631,0.3389,1.3843,0.4922,47.62,-6.16,-2.99
208,1420772628,0.3628,1.3813,0.5156,46.22,-8.05,0.18
209,1420777629,0.4219,1.3970,0.4604,43.29,-10.37,3.17
210,1420782629,0.4702,1.4272,0.4541,39.39,-12.56,5.67
211,1420787627,0.4717,1.4502,0.4961,35.06,-14.57,8.23
212,1420792627,0.4761,1.4585,0.4824,31.77,-16.71,10.79
213,1420797627,0.4844,1.4800,0.4702,29.39,-18.96,13.90
214,1420802627,0.5068,1.5093,0.4849,28.78,-20.79,17.32
215,1420807627,0.5278,1.5376,0.4722,29.57,-22.80,21.22
216,1420812627,0.6729,1.4048,0.4082,31.34,-24.88,25.06
217,1420817627,0.6133,1.6558,0.4312,32.62,-26.59,28.11
218,1420822627,0.4648,1.6714,0.4229,35.43,-28.17,30.73
219,1420827627,0.6719,1.5171,0.4028,39.27,-29.57,34.76
220,1420832631,0.5928,1.4546,0.4346,41.28,-30.73,38.60
221,1420837938,0.5620,1.5586,0.4692,42.26,-32.01,42.93
222,1420842629,0.5029,1.6860,0.3931,42.56,-33.48,47.87
223,1420847629,0.5562,1.7466,0.4487,41.95,-35.18,53.48
224,1420852629,0.5327,1.7358,0.4731,38.72,-36.95,59.33
225,1420857629,0.5308,1.7383,0.4727,31.95,-39.15,65.24
226,1420862628,0.4648,1.7959,0.4976,24.45,-41.40,71.83
227,1420867627,0.4756,1.8477,0.4575,18.78,-43.11,79.09
228,1420872629,0.4893,1.8691,0.3623,15.91,-44.88,86.95
229,1420877627,0.4814,1.8599,0.3711,14.15,-46.65,94.39
230,1420882629,0.4688,1.8379,0.3628,12.74,-48.23,102.20
231,1420887630,0.4692,1.8198,0.3257,12.56,-49.94,110.00
232,1420892629,0.4629,1.7930,0.3164,13.72,-51.40,117.56
233,1420897627,0.4556,1.7529,0.3193,15.91,-52.68,125.00
234,1420902627,0.4551,1.7075,0.2949,18.48,-53.72,132.20
235,1420907627,0.4600,1.6543,0.2739,20.79,-54.82,139.09
236,1420912627,0.4761,1.6064,0.2827,22.50,-55.67,145.37
237,1420917627,0.4819,1.5542,0.2690,23.29,-56.28,151.28
238,1420922627,0.4795,1.4985,0.2559,22.68,-57.07,156.83
239,1420927628,0.4922,1.4551,0.2500,20.24,-57.74,161.65
240,1420932631,0.4980,1.4072,0.2271,15.79,-58.48,166.04
241,1420937630,0.4951,1.3604,0.1978,9.82,-59.45,169.76
242,1420942628,0.5088,1.2993,0.1685,3.90,-60.73,172.99
243,1420947629,0.5308,1.2578,0.1426,0.61,-62.07,175.98
244,1420952629,0.5430,1.2173,0.1338,0.98,-63.41,178.60
245,1420957630,0.5249,1.1587,0.1094,3.96,-64.33,180.85
246,1420962629,0.4971,1.1021,0.0723,7.93,-64.88,183.05
247,1420967627,0.4741,1.0244,0.0264,11.83,-65.61,184.82
248,1420972629,0.4536,0.9419,-0.0044,15.37,-66.16,186.22
249,1420977678,0.4360,0.8687,-0.0303,19.45,-66.52,187.32
250,1420982630,0.4126,0.7861,-0.0449,23.72,-66.46,187.80
251,1420987627,0.3857,0.6914,-0.0566,28.11,-65.73,187.93
252,1420992627,0.3525,0.5957,-0.0747,31.52,-64.76,187.62
253,1420997627,0.2881,0.4956,-0.0791,33.84,-62.87,186.95
254,1421002627,0.2109,0.3926,-0.0859,34.94,-61.28,185.98
255,1421007627,0.1626,0.2832,-0.0781,34.57,-58.78,184.39
256,1421012629,0.1138,0.1870,-0.0732,32.74,-56.04,182.44
257,1421017629,0.0698,0.0757,-0.0806,29.27,-52.87,179.63
258,1421022628,0.0791,-0.0400,-0.0874,24.88,-49.76,176.10
259,1421027629,0.1006,-0.1494,-0.0913,20.18,-46.59,171.59
260,1421032629,0.1382,-0.2393,-0.0957,15.67,-43.48,165.91
261,1421037629,0.1650,-0.3354,-0.1035,11.46,-40.18,159.09
262,1421042629,0.1729,-0.4272,-0.1206,7.74,-36.89,151.40
263,1421047629,0.1855,-0.5200,-0.1465,4.63,-33.66,142.68
264,1421052629,0.2075,-0.5962,-0.1670,2.93,-30.79,133.23
265,1421057630,0.2148,-0.6753,-0.1733,3.17,-27.80,122.80
266,1421062629,0.2002,-0.7588,-0.1812,5.67,-24.88,111.77
267,1421067627,0.1934,-0.8384,-0.1904,10.37,-21.71,100.06
268,1421072629,0.1929,-0.9102,-0.1924,16.83,-18.17,88.05
269,1421077627,0.1987,-0.9702,-0.1997,24.57,-14.51,74.76
270,1421082629,0.2202,-1.0435,-0.1958,33.29,-10.79,61.10
271,1421087629,0.1851,-1.1113,-0.1641,42.56,-6.71,46.95
272,1421092627,0.1870,-1.1631,-0.1367,50.73,-2.20,32.26
273,1421097796,0.2227,-1.2212,-0.1094,55.79,2.44,16.77
274,1421102629,0.2549,-1.2632,-0.0933,56.77,6.71,0.43
275,1421107627,0.2915,-1.3076,-0.0679,52.87,11.04,-16.65
276,1421112627,0.3418,-1.3257,-0.0405,44.76,15.24,-34.45
277,1421117672,0.3999,-1.3252,-0.0200,32.68,19.15,-53.05
278,1421122629,0.4497,-1.3242,0.0024,18.78,22.93,-72.26
279,1421127630,0.5020,-1.2974,0.0098,4.27,26.52,-91.83
280,1421132629,0.5562,-1.2490,0.0210,-10.12,30.30,-111.71
281,1421137629,0.6187,-1.1797,0.0190,-23.72,34.02,-131.59
282,1421142629,0.6387,-1.1152,0.0112,-36.16,38.05,-151.10
283,1421147629,0.6421,-1.0190,-0.0220,-46.28,42.07,-169.88
284,1421152761,0.6968,-0.8315,-0.0376,-52.80,45.91,-187.93
285,1421157630,0.6792,-0.6616,-0.0508,-53.35,49.88,-204.94
286,1421162629,0.6094,-0.5063,-0.0620,-47.80,53.78,-219.70
287,1421167627,0.4863,-0.3521,-0.0781,-37.68,57.56,-231.40
288,1421172629,0.3735,-0.1582,-0.1050,-24.21,60.79,-240.12
289,1421177629,0.3262,0.0581,-0.1172,-7.68,63.35,-246.52
290,1421182629,0.3228,0.2798,-0.1118,11.65,65.49,-250.79
291,1421187629,0.3223,0.5010,-0.0830,32.87,67.07,-253.11
292,1421192628,0.3164,0.7236,-0.0913,54.09,68.23,-253.60
293,1421197632,0.3394,0.9653,-0.1006,72.87,68.23,-252.01
294,1421202629,0.3955,1.4087,-0.0669,87.32,67.50,-248.72
295,1421207627,2.8291,7.2793,2.8550,-28.72,42.13,-198.72
296,1421212629,-0.0850,5.7368,4.5288,-135.37,2.87,-127.01
297,1421217628,0.6084,5.6831,-0.5024,-113.23,48.35,-112.20
298,1421222627,1.3618,3.9390,-1.4004,-95.49,45.00,-92.80
299,1421227627,0.7534,1.8955,2.1191,-90.00,30.24,-69.70
300,1421232629,0.5020,1.3813,0.3716,-74.76,32.13,-46.52
301,1421237628,0.6685,2.3789,-0.8164,-44.63,21.10,-27.07
302,1421242629,0.6709,3.0532,0.9375,-10.98,20.06,-10.61
303,1421247627,0.6631,2.8013,0.6831,10.61,20.85,5.12
304,1421252629,0.7368,2.3774,0.0586,9.09,11.59,21.04
305,1421257627,0.7007,2.1958,0.7959,-0.43,5.00,37.13
306,1421262630,0.6724,2.1855,0.5830,2.93,2.56,53.05
307,1421267629,0.6963,2.2744,-0.0259,18.05,-2.13,68.17
308,1421272628,0.7349,2.2847,0.2690,33.78,-5.73,82.44
309,1421277629,0.7920,2.1284,0.3408,42.01,-7.56,95.12
310,1421282690,0.8530,1.9502,0.0581,41.52,-11.28,106.71
311,1421287629,0.8623,1.8174,0.1704,33.78,-14.63,117.07
312,1421292627,0.8389,1.7100,0.2295,21.65,-16.46,126.22
313,1421297629,0.8218,1.6064,0.0586,8.54,-19.27,134.33
314,1421302629,0.8149,1.4980,0.0752,-1.71,-21.71,141.46
315,1421307627,0.7969,1.3608,0.1387,-7.20,-23.48,147.62
316,1421312627,0.7563,1.2207,0.0776,-8.11,-24.88,152.99
317,1421317627,0.7109,1.0913,0.0464,-6.28,-26.77,157.50
318,1421322629,0.6782,0.9653,0.0615,-2.93,-27.44,160.85
319,1421327629,0.6592,0.8398,0.0352,1.46,-27.99,163.23
320,1421332629,0.6372,0.7080,0.0249,6.71,-28.54,164.63
321,1421337629,0.6089,0.5747,0.0396,12.56,-28.66,165.06
322,1421342628,0.5859,0.4409,0.0327,18.48,-28.60,164.45
323,1421347629,0.5654,0.3062,0.0083,24.02,-28.60,162.87
324,1421352629,0.5400,0.1704,0.0098,28.90,-28.41,160.24
325,1421357629,0.5054,0.0337,0.0034,33.29,-28.23,156.65
326,1421362629,0.4614,-0.1079,-0.0059,37.13,-27.93,152.07
327,1421367630,0.4150,-0.2461,0.0034,40.49,-27.50,146.28
328,1421372629,0.3613,-0.3765,-0.0039,42.93,-27.01,139.51
329,1421377629,0.3433,-0.4883,-0.0210,43.84,-26.46,131.46
330,1421382629,0.3374,-0.6152,-0.0322,43.60,-26.04,122.07
331,1421387627,0.3193,-0.7324,-0.0483,41.77,-25.43,111.22
332,1421392631,0.3022,-0.8696,-0.0723,39.76,-24.51,99.27
333,1421397628,0.2900,-1.0005,-0.0669,38.41,-23.23,86.40
334,1421402627,0.2485,-1.1294,-0.0420,38.90,-21.65,72.07
335,1421407627,0.2178,-1.2568,-0.0093,41.04,-19.15,56.89
336,1421412629,0.2104,-1.3652,0.0059,43.72,-16.04,40.49
337,1421417628,0.2202,-1.4663,0.0200,45.79,-12.56,23.05
338,1421422627,0.2373,-1.5513,0.0264,46.46,-9.27,4.27
339,1421427852,0.2725,-1.6206,0.0439,45.30,-5.98,-15.49
340,1421432631,0.3159,-1.6562,0.0562,42.20,-2.99,-36.28
341,1421437628,0.3540,-1.6543,0.0679,37.93,0.24,-57.99
342,1421442629,0.3755,-1.6445,0.0654,33.17,2.99,-80.43
343,1421447628,0.3789,-1.6157,0.0737,28.60,5.37,-102.93
344,1421452629,0.3589,-1.5552,0.0776,25.06,7.87,-125.37
345,1421457628,0.3418,-1.4912,0.0801,23.48,10.00,-147.50
346,1421462629,0.3062,-1.3960,0.0747,24.02,11.52,-168.72
347,1421467629,0.2729,-1.2837,0.0688,27.01,12.80,-189.27
348,1421472629,0.2529,-1.1235,0.0737,32.56,13.29,-209.15
349,1421477627,0.2783,-0.9282,0.0801,40.06,13.35,-228.17
350,1421482629,0.2617,-0.7363,0.0776,48.05,12.80,-245.98
351,1421487628,0.2163,-0.5234,0.0845,55.06,11.65,-261.77
352,1421492629,0.1875,-0.2754,0.0820,59.57,9.82,-275.37
353,1421497627,3.7368,7.0947,0.0645,40.55,0.61,-212.01
354,1421502629,0.6436,13.0103,1.0156,-20.43,-16.22,-80.79
355,1421507628,1.1074,5.8730,1.2129,-105.85,-23.84,-26.10
356,1421512629,1.2139,0.5034,0.4990,-128.84,-25.37,4.51
357,1421517627,0.8828,-0.5825,-0.2749,-93.11,-25.73,19.09
358,1421522629,0.6211,0.6357,0.1606,-57.80,-23.90,19.21
359,1421527628,0.5664,1.5903,-0.0200,-36.22,-22.62,12.80
360,1421532627,0.7178,0.9268,-0.2783,-23.84,-25.73,4.82
361,1421537629,0.7490,-0.2070,0.1172,-13.66,-27.07,-1.40
362,1421542629,0.6953,-0.4697,0.1494,-3.72,-26.52,-6.77
363,1421547628,0.6724,0.1606,-0.1025,5.49,-27.32,-12.62
364,1421552627,0.6558,0.7881,0.0195,12.87,-28.29,-19.02
365,1421557629,0.6270,0.7876,0.1216,17.99,-28.23,-24.70
366,1421562629,0.5957,0.4536,0.0112,21.10,-29.02,-28.90
367,1421567627,0.5874,0.2944,0.0303,22.56,-29.94,-32.07
368,1421572629,0.5688,0.4561,0.0972,22.50,-30.49,-34.70
369,1421577628,0.5454,0.7114,0.0288,21.77,-31.22,-37.01
370,1421582629,0.5137,0.7920,0.0039,20.37,-32.44,-38.90
371,1421587627,0.4771,0.7109,0.0430,18.84,-33.41,-39.88
372,1421592629,0.4487,0.6240,0.0288,17.68,-34.33,-40.12
373,1421597629,0.4248,0.6382,0.0098,17.26,-35.37,-40.06
374,1421602627,0.4072,0.7041,0.0415,17.74,-36.22,-39.94
375,1421607629,0.3989,0.7344,0.0430,18.41,-36.46,-39.63
376,1421612629,0.3755,0.7095,0.0337,18.96,-37.01,-39.21
377,1421617627,0.3521,0.6587,0.0498,18.66,-37.32,-38.66
378,1421622627,0.3408,0.6343,0.0620,17.32,-37.38,-38.17
379,1421627629,0.3389,0.6421,0.0576,14.27,-37.50,-37.99
380,1421632628,0.3564,0.6445,0.0635,10.06,-37.50,-38.11
381,1421637627,0.3818,0.6299,0.0728,4.70,-37.32,-38.35
382,1421642630,0.3955,0.6084,0.0693,-1.16,-37.38,-38.96
383,1421647629,0.4121,0.5864,0.0596,-7.01,-37.20,-39.76
384,1421652628,0.4395,0.5732,0.0737,-12.50,-36.71,-40.85
385,1421657629,0.4717,0.5806,0.0806,-17.13,-35.98,-42.20
386,1421662628,0.5044,0.5732,0.0688,-20.91,-34.88,-43.66
387,1421667627,0.5366,0.5664,0.0542,-24.39,-33.60,-45.30
388,1421672630,0.5684,0.5630,0.0522,-27.62,-31.77,-46.95
389,1421677629,0.6040,0.5669,0.0381,-31.04,-29.70,-48.54
390,1421682628,0.6177,0.5747,0.0288,-34.88,-27.32,-50.00
391,1421687629,0.6260,0.5742,0.0205,-39.51,-24.94,-51.28
392,1421692629,0.6353,0.5811,-0.0015,-44.70,-22.50,-52.32
393,1421697630,0.6538,0.5957,-0.0186,-50.18,-20.18,-53.17
394,1421702629,0.6646,0.6108,-0.0273,-55.73,-17.93,-53.78
395,1421707627,0.6616,0.6235,-0.0312,-60.67,-15.67,-54.33
396,1421712627,0.6665,0.6338,-0.0386,-65.00,-13.54,-54.70
397,1421717627,0.6890,0.6484,-0.0571,-68.29,-11.52,-54.76
398,1421722627,0.7329,0.6611,-0.0620,-70.12,-9.45,-54.82
399,1421727629,0.7974,0.6895,-0.0659,-70.30,-7.99,-54.88
400,1421732935,0.8613,0.7295,-0.0762,-68.78,-6.40,-55.00
401,1421737630,0.9233,0.7632,-0.0898,-66.04,-4.76,-55.30
402,1421742629,0.9795,0.7793,-0.1035,-62.20,-2.80,-55.61
403,1421747629,1.0210,0.8125,-0.1245,-57.93,-1.16,-55.49
404,1421752628,1.0542,0.8511,-0.1348,-53.35,0.73,-55.12
405,1421757627,1.0615,0.8779,-0.1475,-48.66,2.38,-54.63
406,1421762630,1.0742,0.9175,-0.1519,-44.09,4.15,-53.35
407,1421767630,1.0923,0.9536,-0.1558,-39.63,6.10,-51.95
408,1421772628,1.0962,0.9868,-0.1533,-35.37,8.17,-50.06
409,1421777630,1.0820,1.0098,-0.1553,-31.83,10.24,-47.87
410,1421782629,1.0674,1.0415,-0.1558,-28.66,12.38,-45.12
411,1421787629,1.0513,1.0684,-0.1455,-25.98,14.63,-42.01
412,1421792627,1.0420,1.0962,-0.1387,-23.54,16.71,-38.66
413,1421797630,1.0400,1.1206,-0.1265,-21.04,19.02,-35.12
414,1421802627,1.0356,1.1567,-0.0664,-19.57,21.28,-31.34
415,1421807627,1.0547,1.1797,-0.0410,-21.65,22.99,-27.50
416,1421812627,1.0835,1.2056,-0.0171,-24.57,24.76,-23.72
417,1421817627,1.0767,1.2222,0.0034,-27.80,26.71,-19.88
418,1421822627,1.0542,1.2334,0.0210,-32.44,28.48,-15.79
419,1421827627,1.0493,1.2446,0.0396,-38.41,30.61,-11.77
420,1421832627,1.0317,1.2554,0.0562,-45.67,32.44,-7.62
421,1421838445,0.9985,1.2671,0.0698,-55.49,34.57,-2.44
422,1421842630,0.9790,1.2793,0.0801,-63.66,36.34,1.77
423,1421847630,0.9600,1.2861,0.0986,-69.57,37.62,5.37
424,1421852629,0.9331,1.2944,0.1201,-76.28,39.21,9.94
425,1421857629,0.9189,1.2910,0.1455,-81.77,40.49,14.57
426,1421862628,0.8667,1.3579,0.1680,-85.91,41.65,19.15
427,1421867629,0.7861,1.3276,0.3174,-88.84,42.56,23.96
428,1421872628,0.8345,1.2686,0.2134,-90.49,43.60,29.76
429,1421877627,0.8203,1.3477,0.0645,-87.74,44.15,34.76
430,1421882630,0.6646,1.3623,0.2061,-82.62,45.30,39.39
431,1421887629,0.6958,1.3184,0.1924,-76.46,46.95,44.63
432,1421892628,0.6973,1.3042,0.0591,-69.45,47.56,49.88
433,1421897627,0.6621,1.2734,0.1304,-63.11,48.23,54.57
434,1421902629,0.6460,1.2578,0.1890,-57.32,49.51,58.90
435,1421907628,0.6367,1.1978,0.1294,-52.44,50.12,63.11
436,1421912629,0.6392,1.1382,0.1611,-48.96,50.98,67.13
437,1421917627,0.6187,1.0933,0.2144,-46.83,51.95,70.30
438,1421922629,0.6284,1.0601,0.2104,-45.79,52.80,72.87
439,1421927631,0.6509,1.0244,0.2373,-45.79,53.54,75.00
440,1421932628,0.6821,0.9683,0.3208,-47.20,54.51,76.83
441,1421937627,0.6807,0.9097,0.3726,-50.85,55.43,78.41
442,1421942627,0.6577,0.8560,0.3965,-57.01,56.04,79.27
443,1421947627,0.6187,0.8091,0.4512,-65.24,56.59,79.51
444,1421952627,0.5864,0.7739,0.4609,-74.33,57.20,79.33
445,1421957632,0.5796,0.7578,0.4023,-82.93,58.23,79.15
446,1421962633,0.5894,0.7437,0.3086,-90.06,59.27,79.02
447,1421967631,0.6069,0.7495,0.3164,-95.49,60.67,79.15
448,1421972629,0.6333,0.7749,0.2554,-99.27,62.20,79.45
449,1421977629,0.6807,0.8198,0.2769,-101.52,63.96,79.57
450,1421982627,0.7080,0.8921,0.3306,-102.38,65.43,79.45
451,1421987627,0.7183,0.9019,0.3691,-102.87,67.13,79.33
452,1421992627,0.7007,0.9570,0.3940,-102.62,68.41,79.21
453,1421997627,0.6865,0.9839,0.4043,-102.26,69.21,79.21
454,1422002686,0.5830,0.9805,0.2749,-101.22,69.76,79.21
455,1422007631,0.5322,0.9414,0.2710,-95.73,70.91,79.27
456,1422012630,0.5371,0.9067,0.2812,-86.95,73.17,79.70
457,1422017628,0.5664,0.8677,0.2266,-77.20,74.94,80.06
458,1422022627,0.5962,0.7979,0.2568,-67.68,76.10,80.37
459,1422027627,0.5454,0.7739,0.3496,-58.41,77.68,79.70
460,1422032627,0.4663,0.6440,0.3979,-48.48,79.27,78.54
461,1422037627,0.4048,0.6396,0.3735,-38.23,80.24,76.71
462,1422042631,0.3569,0.5762,0.4434,-27.87,80.37,73.23
463,1422047629,0.2466,0.4653,0.5771,-19.27,79.63,69.70
464,1422052628,0.4160,0.3638,0.8047,-13.72,78.66,67.20
465,1422057678,0.5537,0.3726,0.9146,-10.98,77.38,64.76
466,1422062631,0.5859,0.5083,0.8198,-9.94,75.67,61.40
467,1422067628,0.5264,0.6855,0.6958,-11.04,73.84,56.89
468,1422072628,0.4707,0.8262,0.6050,-14.82,72.44,52.20
469,1422077629,0.4458,0.9082,0.5444,-20.30,70.98,47.80
470,1422082627,0.4307,0.9438,0.5200,-26.89,69.39,44.63
471,1422087628,0.4175,0.9624,0.4971,-33.90,67.80,42.56
472,1422092627,0.4243,0.9736,0.4897,-40.61,66.40,41.65
473,1422097688,0.4473,0.9839,0.5273,-47.26,65.00,41.65
474,1422102630,0.4448,0.9854,0.5293,-53.60,63.96,41.89
475,1422107628,0.4160,0.9761,0.4946,-58.90,63.29,42.20
476,1422112627,0.3667,0.9453,0.4883,-63.41,62.99,42.87
477,1422117627,0.3228,0.9233,0.4883,-66.77,62.74,43.35
478,1422122628,0.2939,0.9014,0.4746,-69.09,62.87,43.41
479,1422127627,0.2656,0.8501,0.4736,-69.70,62.74,42.80
480,1422132627,0.2422,0.7852,0.4824,-68.72,62.87,41.77
481,1422137627,0.1558,0.7480,0.4390,-65.79,62.68,40.12
482,1422142627,0.0723,0.7305,0.3750,-60.55,61.40,37.26
483,1422147627,0.0605,0.5752,0.4160,-53.78,58.41,33.72
484,1422152627,0.0732,0.4639,0.4888,-45.18,55.00,30.55
485,1422157632,0.0571,0.4092,0.5093,-35.06,50.67,27.20
486,1422162628,0.0005,0.3823,0.5708,-24.15,46.22,23.84
487,1422167629,-0.0869,0.3838,0.6953,-14.45,42.32,19.88
488,1422172631,-0.1294,0.4097,0.5649,-8.96,38.90,14.82
489,1422177628,-0.0322,0.4419,0.4839,-4.63,35.00,9.51
490,1422182627,0.0557,0.4463,0.5767,-2.07,33.17,4.88
491,1422187631,0.0894,0.4907,0.5796,-1.28,32.32,0.91
492,1422192724,0.1040,0.5361,0.5186,-2.38,31.10,-2.99
493,1422197631,0.0771,0.5986,0.4722,-5.12,29.82,-7.26
494,1422202630,-0.0200,0.5928,0.5068,-6.95,28.84,-11.71
495,1422207629,-0.0898,0.5459,0.5063,-7.38,28.29,-15.43
496,1422212628,-0.0898,0.4966,0.4482,-6.22,27.32,-18.66
497,1422217629,-0.0342,0.4692,0.4419,-3.66,25.85,-21.22
498,1422222631,0.0181,0.4839,0.4482,0.37,24.70,-23.90
499,1422227628,0.0479,0.4878,0.4336,5.43,23.41,-26.77
500,1422232627,0.0483,0.4575,0.4268,11.59,22.07,-29.57
501,1422237627,0.0542,0.4248,0.3569,18.41,20.49,-32.20
502,1422242631,0.0518,0.4272,0.3628,26.16,18.72,-34.39
503,1422247695,0.0381,0.3984,0.3984,33.78,16.95,-36.40
504,1422252627,0.0054,0.4443,0.3613,41.65,15.06,-38.60
505,1422257627,-0.0352,0.4785,0.3818,48.84,13.29,-41.40
506,1422262784,-0.0508,0.4731,0.4009,54.94,11.65,-44.45
507,1422267628,-0.0771,0.4639,0.3926,59.15,10.12,-47.56
508,1422272629,-0.1157,0.4614,0.3892,61.71,8.35,-50.61
509,1422277628,-0.1421,0.4854,0.3560,62.32,6.22,-53.60
510,1422282712,-0.0771,0.5151,0.3687,61.83,4.33,-56.59
511,1422287631,-0.0332,0.5342,0.3813,61.22,2.56,-59.45
512,1422292628,-0.0591,0.5454,0.3833,60.12,0.73,-61.89
513,1422297809,-0.0859,0.5752,0.3945,58.23,-0.61,-64.15
514,1422302631,-0.0918,0.5811,0.3711,55.37,-1.95,-66.34
515,1422307628,-0.1021,0.5698,0.3511,51.65,-2.99,-68.48
516,1422312629,-0.0962,0.5547,0.3296,47.13,-3.90,-70.91
517,1422317627,-0.1074,0.5474,0.3442,42.56,-4.76,-73.48
518,1422322631,-0.1392,0.5322,0.3403,38.96,-4.76,-76.65
519,1422327628,-0.1523,0.5229,0.3145,37.50,-4.63,-79.88
520,1422332629,-0.1577,0.5195,0.2949,38.11,-3.96,-83.05
521,1422337628,-0.1577,0.5244,0.2690,39.82,-3.05,-86.40
522,1422342627,-0.1543,0.5288,0.2593,42.20,-2.20,-89.76
523,1422347627,-0.1533,0.5430,0.2549,45.24,-1.16,-92.87
524,1422352631,-0.1548,0.5635,0.2485,48.60,-0.37,-96.04
525,1422357629,-0.2324,0.5728,0.3218,51.77,0.67,-99.21
526,1422362629,-0.1851,0.5659,0.2905,53.05,1.59,-102.20
527,1422367628,-0.1577,0.6079,0.2021,55.12,2.50,-105.12
528,1422372629,-0.1948,0.6475,0.2461,57.01,3.41,-107.93
529,1422377628,-0.2085,0.6421,0.2939,58.72,4.57,-110.85
530,1422382629,-0.1904,0.6646,0.2925,60.24,5.30,-113.60
531,1422387628,-0.1914,0.6924,0.3018,62.20,6.04,-116.46
532,1422392631,-0.1924,0.7148,0.2988,65.37,6.77,-118.96
533,1422397627,-0.1982,0.7393,0.3076,68.84,7.80,-121.22
534,1422402629,-0.2056,0.7646,0.2959,70.67,8.54,-123.35
535,1422407628,-0.1465,0.8086,0.3384,70.37,9.39,-125.49
536,1422412627,-0.1479,0.8721,0.3452,67.87,10.49,-127.50
537,1422417631,-0.1665,0.9233,0.3457,63.17,11.10,-129.21
538,1422422628,-0.1729,0.9688,0.3721,57.32,11.65,-130.37
539,1422427627,-0.1646,1.0142,0.3833,51.10,12.01,-131.16
540,1422432627,-0.1597,1.0386,0.3735,45.24,12.32,-131.59
541,1422437627,-0.1899,1.0532,0.3857,39.76,12.44,-132.13
542,1422442630,-0.1772,1.0254,0.3564,34.88,12.62,-132.62
543,1422447628,-0.1455,1.0122,0.3423,31.95,12.68,-133.29
544,1422452631,-0.1655,1.0044,0.3306,31.34,12.74,-134.33
545,1422457628,-0.1699,0.9932,0.3022,33.05,12.99,-135.79
546,1422462631,-0.1616,0.9878,0.3022,37.38,13.29,-137.20
547,1422467628,-0.1694,0.9868,0.3037,43.84,13.78,-138.84
548,1422472629,-0.1875,0.9810,0.3145,51.46,14.33,-140.43
549,1422477628,-0.2207,0.9780,0.3667,59.51,14.88,-141.95
550,1422482631,-0.2178,0.9819,0.3594,66.65,15.43,-143.72
551,1422487627,-0.2280,1.0103,0.3501,73.11,15.49,-145.18
552,1422492631,-0.2622,1.0449,0.3735,77.74,15.55,-146.65
553,1422497628,-0.2686,1.0869,0.3608,80.12,15.67,-147.68
554,1422502631,-0.2651,1.1323,0.3643,79.88,15.67,-148.35
555,1422507631,-0.2603,1.1816,0.3672,76.71,15.61,-148.96
556,1422512630,-0.2573,1.2334,0.3677,70.85,15.37,-149.21
557,1422517629,-0.2378,1.2725,0.3813,63.05,15.49,-149.39
558,1422522629,-0.2295,1.3008,0.3809,54.02,15.37,-149.15
559,1422527629,-0.2236,1.3291,0.4019,44.45,15.30,-148.90
560,1422532629,-0.2168,1.3325,0.4087,35.18,15.43,-148.60
561,1422537629,-0.2129,1.3257,0.4238,27.44,15.55,-148.29
562,1422542627,-0.2432,1.3037,0.4688,22.56,15.06,-148.17
563,1422547631,-0.2427,1.2637,0.5127,20.61,14.51,-148.48
564,1422552629,-0.2139,1.2241,0.5054,22.26,13.48,-149.27
565,1422557628,-0.2065,1.2188,0.4966,27.44,12.01,-150.43
566,1422562629,-0.2202,1.2261,0.4932,35.43,10.67,-151.89
567,1422567628,-0.2188,1.2319,0.4648,45.00,9.02,-153.29
568,1422572629,-0.2236,1.2529,0.4448,55.24,7.50,-154.57
569,1422577628,-0.2373,1.2773,0.4302,65.49,6.04,-155.73
570,1422582630,-0.2402,1.3052,0.4180,75.06,4.57,-156.71
571,1422587628,-0.2583,1.3350,0.4209,83.35,2.99,-157.13
572,1422592629,-0.2642,1.3667,0.4355,89.09,1.46,-157.26
573,1422597628,-0.2705,1.4136,0.4482,91.65,-0.67,-156.83
574,1422602627,-0.2769,1.4536,0.4717,90.79,-3.29,-155.98
575,1422607631,-0.2905,1.4849,0.5107,86.71,-6.22,-154.76
576,1422612629,-0.3062,1.5063,0.5210,80.79,-9.33,-153.17
577,1422617629,-0.3159,1.5312,0.5234,73.05,-12.20,-151.16
578,1422622628,-0.3320,1.5571,0.5215,63.90,-15.00,-148.90
579,1422627629,-0.3198,1.5674,0.5117,54.09,-17.32,-146.34
580,1422632629,-0.3037,1.5791,0.5137,44.88,-19.33,-143.66
581,1422637629,-0.2993,1.5732,0.5034,37.01,-20.85,-140.73
582,1422642628,-0.2969,1.5610,0.4873,31.16,-21.83,-137.80
583,1422647629,-0.3018,1.5391,0.4746,27.68,-22.56,-135.06
584,1422652630,-0.3003,1.5254,0.4473,26.52,-22.62,-132.50
585,1422657629,-0.3154,1.5093,0.4355,27.26,-22.62,-130.00
586,1422662627,-0.3643,1.4844,0.4409,29.88,-22.62,-127.62
587,1422667629,-0.3545,1.4922,0.4150,35.00,-22.62,-125.37
588,1422672629,-0.3433,1.5127,0.3604,41.65,-23.11,-123.11
589,1422677629,-0.3218,1.5239,0.4307,49.51,-23.78,-120.67
590,1422682627,-0.2910,1.5293,0.4512,57.50,-24.70,-118.17
591,1422687628,-0.2949,1.5293,0.4863,64.76,-26.28,-115.67
592,1422692629,-0.2817,1.5039,0.5137,69.21,-28.17,-113.29
593,1422697627,-0.2778,1.4971,0.5366,69.94,-30.30,-111.16
594,1422702627,-0.2974,1.4688,0.5698,66.95,-32.26,-109.27
595,1422707627,-0.3276,1.4600,0.5830,60.00,-33.90,-107.26
596,1422712627,-0.3247,1.4517,0.6108,49.82,-35.49,-105.24
597,1422717629,-0.3555,1.4316,0.6465,37.56,-36.95,-103.11
598,1422722629,-0.4004,1.3965,0.6543,24.51,-38.48,-100.85
599,1422727930,-0.4238,1.3555,0.6328,11.28,-39.76,-99.02
600,1422732629,-0.4434,1.2983,0.6118,-0.79,-41.10,-97.62
601,1422737629,-0.4551,1.2275,0.5898,-11.34,-41.95,-96.95
602,1422742629,-0.4692,1.1792,0.5566,-20.00,-42.38,-96.71
603,1422747628,-0.4604,1.1475,0.5723,-25.67,-42.87,-97.13
604,1422752627,-0.4487,1.1113,0.6558,-26.16,-43.54,-97.80
605,1422757631,-0.4653,1.0557,0.6899,-21.16,-45.24,-98.90
606,1422762629,-0.4614,0.9712,0.6836,-13.35,-47.56,-100.91
607,1422767628,-0.4873,0.9043,0.6841,-5.30,-49.94,-103.66
608,1422772629,-0.5103,0.8472,0.6650,1.71,-51.89,-107.07
609,1422777628,-0.5361,0.8184,0.6494,8.41,-53.78,-110.67
610,1422782629,-0.5605,0.8457,0.6831,14.63,-55.67,-114.70
611,1422787628,-0.5898,0.8086,0.6875,20.61,-57.80,-118.11
612,1422792627,-0.6196,0.7764,0.7100,25.30,-60.30,-121.83
613,1422797627,-0.6406,0.7388,0.7544,27.62,-62.50,-125.98
614,1422802627,-0.7354,0.7188,0.7183,28.17,-64.88,-130.49
615,1422807627,-0.7734,0.7314,0.7363,27.38,-66.65,-135.18
616,1422812629,-0.7681,0.7559,0.6855,24.33,-68.66,-139.57
617,1422817629,-0.7720,0.7930,0.7188,18.84,-71.04,-143.66
618,1422822629,-0.7715,0.8281,0.7368,11.77,-73.41,-147.32
619,1422827628,-0.7661,0.9233,0.7197,4.21,-76.28,-150.30
620,1422832629,-0.7861,0.9692,0.7310,-2.38,-79.02,-152.50
621,1422837628,-0.8452,1.0444,0.7563,-7.20,-81.65,-153.54
622,1422842627,-0.8735,1.0874,0.7271,-10.24,-84.33,-154.09
623,1422847629,-0.8950,1.1328,0.7251,-10.00,-87.38,-153.78
624,1422852629,-0.9321,1.1787,0.7314,-6.40,-90.18,-152.56
625,1422857628,-0.9419,1.2129,0.7051,-0.55,-93.35,-150.98
626,1422862924,-0.9297,1.2324,0.6982,6.71,-97.13,-149.02
627,1422867629,-0.9185,1.2480,0.7085,14.21,-100.91,-147.07
628,1422872629,-0.8950,1.2397,0.7065,21.59,-105.00,-145.00
629,1422877629,-0.8940,1.2407,0.7261,27.93,-108.96,-143.11
630,1422882628,-0.8882,1.2427,0.7554,31.52,-112.93,-141.22
631,1422887629,-0.8921,1.2476,0.7651,31.10,-116.95,-139.27
632,1422892627,-0.8965,1.2563,0.7739,26.16,-120.73,-137.32
633,1422897627,-0.9048,1.2642,0.7983,17.74,-124.45,-135.30
634,1422902629,-0.9004,1.2749,0.8052,7.26,-128.17,-133.60
635,1422907628,-0.8623,1.2827,0.7983,-3.48,-131.46,-131.89
636,1422912628,-0.8438,1.2920,0.8062,-13.35,-134.33,-130.43
637,1422917627,-0.8462,1.3027,0.7993,-21.46,-136.71,-128.84
638,1422922627,-0.8364,1.3110,0.7935,-27.50,-138.96,-127.32
639,1422927629,-0.8232,1.3105,0.7925,-31.04,-140.79,-125.85
640,1422932629,-0.8252,1.3115,0.7930,-31.52,-142.56,-124.21
641,1422937627,-0.8125,1.3120,0.7861,-29.63,-144.02,-122.44
642,1422942627,-0.8008,1.3101,0.7847,-26.89,-145.43,-120.61
643,1422947627,-0.8032,1.3096,0.7852,-23.72,-146.89,-118.41
644,1422952627,-0.8130,1.3179,0.7817,-20.61,-148.48,-116.28
645,1422957627,-0.8125,1.3145,0.7764,-17.44,-150.24,-114.02
646,1422962627,-0.8208,1.3125,0.8003,-14.45,-152.13,-111.71
647,1422967629,-0.8335,1.3174,0.8091,-12.38,-154.27,-109.09
648,1422972629,-0.8511,1.3125,0.8130,-11.52,-156.40,-106.65
649,1422978104,-0.8618,1.2954,0.8267,-12.68,-159.33,-103.41
650,1422982629,-0.8555,1.2876,0.8281,-14.70,-161.28,-101.28
651,1422987628,-0.8320,1.2686,0.8291,-19.09,-164.02,-98.90
652,1422992629,-0.8286,1.2500,0.8281,-25.37,-166.46,-96.34
653,1422997629,-0.8354,1.2485,0.8540,-32.01,-168.90,-94.02
654,1423002629,-0.8140,1.2378,0.8618,-38.11,-170.49,-91.77
655,1423007627,-0.7925,1.2334,0.8638,-44.33,-171.71,-89.88
656,1423012627,-0.7769,1.2207,0.8682,-50.85,-172.80,-87.80
657,1423017627,-0.7920,1.2231,0.8799,-57.13,-173.54,-85.67
658,1423022631,-0.7993,1.2217,0.8843,-62.68,-174.09,-83.66
659,1423027628,-0.7837,1.2119,0.8721,-66.65,-174.94,-81.59
660,1423032627,-0.7617,1.2041,0.8701,-67.74,-175.79,-79.57
661,1423037627,-0.7324,1.1836,0.8682,-65.55,-177.01,-77.62
662,1423042627,-0.7124,1.1772,0.8696,-60.00,-178.35,-75.79
663,1423047757,-0.6948,1.1641,0.8721,-50.98,-180.30,-73.90
664,1423052629,-0.6787,1.1416,0.8735,-44.63,-181.89,-72.68
665,1423057629,-0.7041,1.1401,0.8838,-38.11,-183.72,-71.04
666,1423062629,-0.7402,1.1313,0.8809,-35.18,-185.91,-69.15
667,1423067629,-0.7539,1.1201,0.8857,-36.59,-188.29,-66.95
668,1423072629,-0.7949,1.0703,0.9058,-41.46,-190.43,-64.39
669,1423077628,-0.8608,1.1309,0.9404,-47.87,-192.20,-61.28
670,1423082629,-0.8394,1.1099,0.9385,-55.12,-193.60,-58.78
671,1423087628,-0.7886,1.0820,0.9653,-61.95,-194.39,-56.16
672,1423092627,-0.8013,1.0781,0.9761,-68.72,-194.63,-53.90
673,1423097627,-0.7749,1.0649,0.9551,-75.30,-194.82,-51.83
674,1423102634,-0.7524,1.0581,0.9722,-80.98,-195.12,-49.88
675,1423107630,-0.7476,1.0513,0.9888,-84.76,-195.37,-48.11
676,1423112629,-0.7192,1.0342,0.9785,-86.46,-195.73,-46.40
677,1423117630,-0.6973,1.0117,0.9839,-86.22,-196.16,-44.82
678,1423122630,-0.6782,0.9966,0.9966,-84.39,-196.71,-43.60
679,1423127629,-0.6470,0.9961,0.9697,-82.01,-197.68,-42.56
680,1423132629,-0.5791,0.9893,0.9497,-79.21,-198.96,-42.13
681,1423137629,-0.5449,0.9849,0.9639,-75.85,-200.12,-41.77
682,1423142629,-0.5688,0.9800,0.9751,-72.74,-201.04,-41.16
683,1423147629,-0.6172,0.9805,0.9878,-71.22,-201.95,-40.06
684,1423152629,-0.6733,0.9897,1.0020,-71.52,-202.50,-38.54
685,1423157629,-0.7114,0.9878,1.0259,-73.78,-202.93,-36.59
686,1423162628,-0.7383,0.9844,1.0596,-77.20,-202.74,-34.21
687,1423167631,-0.7573,0.9893,1.0635,-82.01,-202.68,-31.65
688,1423172628,-0.7441,0.9805,1.0625,-87.99,-202.50,-29.33
689,1423177629,-0.7178,0.9590,1.0679,-94.70,-202.74,-26.89
690,1423182628,-0.7041,0.9507,1.0679,-101.04,-202.99,-24.88
691,1423187630,-0.6826,0.9253,1.0771,-107.01,-203.35,-23.23
692,1423192627,-0.6455,0.9121,1.0732,-111.59,-204.21,-21.89
693,1423197627,-0.6060,0.8975,1.0732,-114.51,-205.00,-20.85
694,1423202629,-0.5879,0.8872,1.0703,-115.91,-205.91,-20.12
695,1423207629,-0.5674,0.8838,1.0771,-115.73,-206.83,-19.57
696,1423212629,-0.5498,0.8682,1.0884,-113.66,-207.62,-19.27
697,1423217652,-0.5396,0.8594,1.0947,-110.24,-208.54,-18.84
698,1423222629,-0.5195,0.8496,1.0879,-107.07,-209.45,-18.41
699,1423227628,-0.4819,0.8467,1.0742,-105.06,-210.67,-18.05
700,1423232627,-0.4565,0.8413,1.0688,-104.45,-212.01,-17.87
701,1423237629,-0.4580,0.8291,1.0693,-104.21,-212.99,-17.56
702,1423242629,-0.4609,0.8198,1.0601,-104.33,-213.96,-17.07
703,1423247629,-0.4590,0.8062,1.0498,-104.33,-214.39,-16.40
704,1423252628,-0.4727,0.7979,1.0693,-103.90,-214.76,-15.61
705,1423257629,-0.4824,0.7832,1.0781,-103.23,-214.15,-14.51
706,1423262627,-0.5112,0.7739,1.0820,-104.02,-213.48,-13.23
707,1423267796,-0.5327,0.7720,1.0830,-107.56,-212.56,-11.89
708,1423272629,-0.5171,0.7681,1.0840,-113.84,-211.52,-10.49
709,1423277628,-0.5176,0.7637,1.0884,-122.44,-210.67,-9.15
710,1423282629,-0.5098,0.7671,1.0771,-132.74,-210.30,-8.29
711,1423287692,-0.4658,0.7642,1.0669,-142.62,-210.49,-7.74
712,1423292629,-0.4404,0.7563,1.0469,-150.18,-210.85,-7.50
713,1423297629,-0.4155,0.7583,1.0332,-154.02,-211.65,-7.50
714,1423302628,-0.3638,0.7515,1.0142,-152.93,-212.74,-7.68
715,1423307627,-0.3423,0.7441,1.0083,-147.80,-214.21,-7.50
716,1423312629,-0.3643,0.7334,1.0010,-139.57,-215.55,-7.20
717,1423317628,-0.3750,0.7051,0.9922,-129.70,-216.89,-6.40
718,1423322660,-0.3716,0.6860,0.9917,-119.51,-218.23,-5.37
719,1423327629,-0.3745,0.6567,0.9995,-110.37,-219.57,-4.09
720,1423332628,-0.3770,0.6294,1.0059,-103.90,-220.55,-2.62
721,1423337702,-0.3872,0.5977,1.0117,-101.65,-221.28,-1.34
722,1423342629,-0.3945,0.5767,1.0063,-104.45,-221.95,-0.06
723,1423347628,-0.4009,0.5576,1.0068,-111.52,-222.62,0.79
724,1423352627,-0.3647,0.5420,1.0015,-121.46,-223.29,1.04
725,1423357627,-0.3193,0.5117,0.9902,-132.07,-223.66,0.79
726,1423362627,-0.2930,0.4995,0.9678,-142.26,-224.15,0.24
727,1423367671,-0.2886,0.4810,0.9438,-150.91,-224.70,-0.55
728,1423373063,-0.2412,0.4756,0.9058,-157.93,-225.73,-1.89
729,1423377629,-0.1934,0.4526,0.8818,-159.82,-226.28,-2.80
730,1423382628,-0.1753,0.4385,0.8701,-158.54,-227.07,-4.02
731,1423387629,-0.1753,0.4209,0.8447,-153.78,-227.56,-5.00
732,1423392628,-0.1646,0.4014,0.8203,-146.65,-228.17,-5.55
733,1423397629,-0.1387,0.3779,0.7900,-138.72,-228.48,-6.04
734,1423402628,-0.1187,0.3589,0.7793,-130.12,-228.72,-6.22
735,1423407629,-0.1177,0.3486,0.7773,-121.40,-228.48,-6.46
736,1423412627,-0.1216,0.3257,0.7852,-114.09,-228.05,-6.34
737,1423417627,-0.1465,0.3174,0.7915,-109.63,-227.01,-5.98
738,1423422628,-0.1504,0.3032,0.7852,-109.88,-226.22,-5.24
739,1423427857,-0.1328,0.2944,0.7827,-116.95,-225.24,-4.63
740,1423432629,-0.1289,0.2925,0.7856,-124.82,-224.51,-4.27
741,1423437629,-0.1294,0.2852,0.7793,-137.44,-223.72,-4.09
742,1423442627,-0.1069,0.2856,0.7734,-151.59,-222.80,-4.15
743,1423447627,-0.0933,0.2881,0.7510,-166.34,-222.07,-4.63
744,1423452627,-0.0698,0.2900,0.7085,-179.82,-221.65,-5.73
745,1423457627,-0.0347,0.2944,0.6880,-189.57,-221.52,-7.32
746,1423462629,-0.0122,0.3022,0.6572,-193.96,-221.40,-9.02
747,1423467629,0.0107,0.2935,0.6182,-192.44,-221.46,-11.10
748,1423472628,0.0635,0.2925,0.5708,-184.88,-221.95,-13.29
749,1423477627,0.1279,0.2695,0.5371,-171.89,-222.68,-15.61
750,1423482629,0.1787,0.2446,0.5156,-155.00,-223.11,-17.68
751,1423487629,0.1841,0.2241,0.5000,-137.01,-223.72,-19.33
752,1423492629,0.1704,0.1968,0.4707,-121.04,-224.15,-20.37
753,1423497628,0.1587,0.1831,0.4526,-109.57,-224.70,-20.85
754,1423502629,0.1406,0.1768,0.4629,-103.11,-224.70,-20.91
755,1423507629,0.1016,0.1592,0.4863,-102.13,-224.63,-20.55
756,1423512629,0.0713,0.1479,0.4951,-105.43,-224.09,-20.00
757,1423517629,0.0503,0.1362,0.4985,-113.72,-222.93,-19.39
758,1423522628,0.0464,0.1304,0.4985,-125.67,-221.95,-19.02
759,1423527629,0.0742,0.1216,0.5000,-138.96,-220.49,-18.90
760,1423532628,0.0801,0.1196,0.5044,-151.65,-219.09,-19.15
761,1423537627,0.0767,0.1357,0.4600,-162.80,-217.32,-19.94
762,1423542627,0.1543,0.1084,0.4014,-170.61,-216.16,-21.22
763,1423547629,0.2725,0.1030,0.3618,-172.93,-215.12,-22.80
764,1423552627,0.3433,0.1060,0.3364,-169.76,-214.15,-24.63
765,1423557627,0.3721,0.0879,0.2690,-162.68,-213.35,-26.59
766,1423562627,0.3965,0.0718,0.2046,-153.78,-212.80,-28.23
767,1423567629,0.4360,0.0649,0.1807,-144.27,-212.74,-29.57
768,1423572629,0.4624,0.0718,0.1772,-135.00,-212.20,-30.73
769,1423577629,0.4580,0.0664,0.1631,-127.68,-211.52,-31.71
770,1423582628,0.4292,0.0576,0.1724,-123.29,-210.55,-31.95
771,1423587629,0.3960,0.0518,0.1724,-121.89,-209.33,-31.83
772,1423592628,0.3809,0.0459,0.1719,-123.29,-208.11,-31.52
773,1423597629,0.4058,0.0449,0.1772,-126.10,-206.34,-31.34
774,1423602629,0.4106,0.0283,0.1855,-129.51,-204.57,-31.28
775,1423607628,0.3921,0.0176,0.2036,-133.41,-202.68,-31.34
776,1423613016,0.4365,0.0293,0.1802,-139.70,-200.79,-32.01
777,1423617629,0.5078,0.0518,0.1812,-144.45,-199.82,-33.05
778,1423622629,0.5391,0.0420,0.1748,-150.61,-198.84,-34.57
779,1423627628,0.4956,0.0234,0.1504,-156.89,-197.74,-35.61
780,1423632627,0.4839,0.0337,0.1133,-162.80,-196.95,-36.28
781,1423637627,0.5430,0.0430,0.0811,-167.26,-196.89,-37.01
782,1423642627,0.5742,0.0454,0.0591,-169.21,-197.01,-37.62
783,1423647628,0.5762,0.0503,0.0415,-168.23,-197.26,-38.17
784,1423652627,0.5674,0.0498,0.0098,-164.76,-197.44,-38.29
785,1423657627,0.5791,0.0527,0.0034,-160.12,-197.74,-38.29
786,1423662627,0.5376,0.0820,-0.0566,-155.98,-198.35,-38.41
787,1423668480,0.5649,0.0674,-0.0464,-151.71,-199.15,-38.78
788,1423672629,0.5566,0.0674,-0.0532,-148.66,-199.63,-39.15
789,1423677629,0.5435,0.0688,-0.0576,-145.18,-200.18,-39.82
790,1423682629,0.5610,0.0552,-0.0640,-143.11,-200.55,-40.55
791,1423687629,0.5835,0.0249,-0.0894,-142.68,-201.34,-41.40
792,1423692629,0.6230,0.0732,-0.0737,-143.23,-202.56,-42.99
793,1423697629,0.6733,0.0884,-0.0439,-144.27,-203.78,-45.30
794,1423702629,0.6768,0.0830,-0.0273,-145.61,-204.88,-47.87
795,1423707629,0.6699,0.1147,-0.0322,-148.29,-206.83,-50.30
796,1423712629,0.6694,0.1523,-0.0298,-152.50,-208.72,-52.68
797,1423717627,0.6108,0.1582,-0.0688,-157.87,-210.85,-54.70
798,1423722629,0.5483,0.1748,-0.1206,-162.68,-213.35,-55.91
799,1423727628,0.5156,0.2085,-0.1357,-165.00,-215.98,-56.71
800,1423732629,0.5049,0.2241,-0.1714,-163.72,-218.54,-57.07
801,1423737629,0.5073,0.2290,-0.2192,-158.17,-221.40,-57.13
802,1423742627,0.5127,0.2515,-0.2437,-149.57,-224.09,-56.89
803,1423747627,0.5332,0.2651,-0.2627,-138.90,-226.83,-56.71
804,1423752629,0.5391,0.2651,-0.2925,-128.35,-229.63,-56.71
805,1423757627,0.5376,0.2632,-0.3257,-119.15,-232.87,-56.83
806,1423762627,0.5522,0.2646,-0.3320,-111.83,-235.79,-57.38
807,1423767627,0.5898,0.2793,-0.3091,-106.65,-238.90,-58.66
808,1423772627,0.6284,0.2900,-0.2881,-103.78,-241.52,-60.91
809,1423777627,0.6519,0.2837,-0.2783,-103.78,-244.09,-63.48
810,1423782632,0.6753,0.3364,-0.2759,-106.71,-246.22,-66.46
811,1423787628,0.6943,0.3682,-0.2778,-111.83,-247.99,-69.57
812,1423792891,0.6489,0.3633,-0.2964,-118.54,-249.39,-72.32
813,1423797629,0.5938,0.3789,-0.3066,-122.26,-250.37,-73.23
814,1423802629,0.5532,0.4282,-0.3354,-125.61,-251.34,-73.84
815,1423807629,0.5562,0.4580,-0.3726,-127.20,-252.50,-73.72
816,1423812628,0.5547,0.4854,-0.3989,-126.52,-253.54,-72.87
817,1423817629,0.4980,0.5293,-0.4092,-123.66,-254.76,-71.46
818,1423822627,0.4487,0.5718,-0.4438,-119.27,-255.43,-69.57
819,1423827627,0.4238,0.5938,-0.4644,-114.27,-256.22,-67.50
820,1423832628,0.4214,0.5791,-0.5073,-109.09,-257.13,-65.12
821,1423837939,0.4058,0.5933,-0.5171,-103.84,-258.41,-62.20
822,1423842630,0.4038,0.6113,-0.5044,-101.34,-258.96,-60.73
823,1423847628,0.4199,0.6328,-0.4976,-99.94,-259.63,-59.51
824,1423852627,0.4512,0.6255,-0.5054,-99.88,-260.43,-58.78
825,1423857631,0.4722,0.6318,-0.5210,-100.55,-260.85,-58.60
826,1423862628,0.4844,0.6611,-0.4961,-101.46,-261.22,-58.90
827,1423867630,0.5337,0.7051,-0.4849,-102.50,-261.22,-59.45
828,1423872629,0.5298,0.6948,-0.5195,-102.80,-260.91,-60.37
829,1423877629,0.4399,0.7227,-0.5596,-102.32,-260.61,-60.73
830,1423882627,0.3145,0.7280,-0.6025,-100.49,-260.55,-60.67
831,1423888011,0.2549,0.7515,-0.6206,-94.82,-260.24,-59.51
832,1423892629,0.2520,0.7979,-0.6440,-88.66,-259.63,-58.72
833,1423897627,0.2446,0.7427,-0.6768,-77.68,-258.78,-57.26
834,1423903073,0.2241,0.7236,-0.7437,-62.26,-257.93,-54.15
835,1423907629,0.1982,0.7266,-0.7715,-52.38,-257.68,-51.71
836,1423912629,0.2007,0.7437,-0.7861,-42.56,-257.13,-48.78
837,1423917754,0.2363,0.7432,-0.7856,-36.16,-257.01,-45.43
838,1423922627,0.2417,0.7495,-0.7998,-35.61,-257.01,-43.72
839,1423927628,0.2397,0.7485,-0.8057,-39.09,-257.13,-42.01
840,1423932629,0.2168,0.7451,-0.8047,-45.98,-257.38,-40.91
841,1423937627,0.1851,0.7305,-0.7983,-54.39,-257.87,-40.30
842,1423942627,0.1548,0.7148,-0.7988,-62.87,-258.05,-39.88
843,1423947629,0.1265,0.7402,-0.7812,-70.85,-258.48,-40.12
844,1423952761,0.0405,0.7354,-0.8179,-79.27,-258.78,-41.46
845,1423957629,-0.0698,0.6909,-0.8652,-83.84,-259.45,-42.26
846,1423962628,-0.2305,0.6626,-0.8965,-87.62,-260.61,-42.99
847,1423967627,-0.3140,0.6509,-0.9004,-89.45,-261.46,-43.60
848,1423972629,-0.3477,0.6367,-0.8813,-89.27,-262.38,-44.33
849,1423977632,-0.4038,0.6167,-0.8809,-87.93,-262.99,-45.06
850,1423982627,-0.4810,0.5913,-0.8618,-85.73,-263.29,-46.04
851,1423987629,-0.5020,0.5752,-0.8486,-84.76,-263.48,-46.83
852,1423992839,-0.5112,0.5503,-0.8306,-84.76,-263.54,-48.60
853,1423997629,-0.5195,0.5532,-0.8169,-85.49,-263.66,-50.24
854,1424002628,-0.4868,0.5537,-0.7842,-87.50,-263.78,-53.29
855,1424007629,-0.4492,0.5010,-0.7788,-90.55,-263.96,-57.26
856,1424012629,-0.4199,0.4541,-0.7798,-94.39,-264.63,-61.77
857,1424017627,-0.4775,0.4062,-0.7822,-98.23,-265.85,-66.95
858,1424022628,-0.5967,0.3979,-0.8125,-102.20,-267.01,-72.80
859,1424027629,-0.7266,0.3452,-0.8120,-106.16,-269.02,-79.02
860,1424032627,-0.8125,0.3140,-0.7817,-109.63,-271.46,-85.55
861,1424037628,-1.0439,0.2891,-0.7720,-113.54,-274.27,-93.66
862,1424042627,-1.1274,0.2393,-0.7534,-115.49,-276.28,-99.39
863,1424047627,-1.2119,0.2090,-0.7603,-116.65,-278.41,-107.44
864,1424052627,-1.2666,0.1895,-0.7559,-117.07,-281.04,-115.91
865,1424057627,-1.3022,0.1787,-0.7334,-116.46,-284.09,-125.12
866,1424062627,-1.3628,0.1582,-0.6826,-115.24,-286.83,-134.88
867,1424067627,-1.4409,0.1348,-0.6416,-114.02,-289.21,-145.18
868,1424072627,-1.4712,0.1289,-0.6265,-113.17,-291.52,-156.46
869,1424077627,-1.4038,0.0781,-0.5913,-112.44,-294.02,-167.99
870,1424082629,-1.5610,0.2573,-0.5884,-108.72,-295.49,-179.09
871,1424087632,-1.7329,0.2290,-0.5200,-109.33,-298.41,-193.11
872,1424092629,-1.5703,0.1201,-0.6963,-112.80,-302.01,-208.17
873,1424097628,-1.6919,0.1992,-0.6538,-116.95,-306.04,-223.29
874,1424102627,-2.0503,0.2559,-0.5171,-122.20,-308.84,-239.15
875,1424107627,-2.3608,0.2417,-0.5889,-128.48,-311.22,-255.18
876,1424112627,-2.5986,0.1924,-0.6328,-135.55,-313.66,-271.28
877,1424117629,-2.8213,0.1885,-0.5835,-145.55,-315.49,-291.59
878,1424122629,-2.9180,0.1729,-0.5332,-155.00,-316.46,-310.00
879,1424127698,-2.9575,0.1973,-0.5742,-164.88,-316.95,-330.12
880,1424132629,-2.9692,0.2471,-0.5488,-172.44,-316.83,-347.62
881,1424137629,-3.0054,0.2559,-0.5049,-180.67,-315.79,-371.65
882,1424142630,-3.0752,0.2656,-0.5254,-188.29,-313.41,-402.80
883,1424147629,-3.1362,0.2739,-0.5586,-192.13,-311.10,-425.12
884,1424152627,-3.2354,0.3174,-0.5537,-195.85,-307.99,-454.76
885,1424157627,-3.4077,0.3604,-0.5850,-198.48,-304.09,-486.10
886,1424162629,-3.8398,0.4155,-0.6191,-200.43,-298.60,-525.30
887,1424167629,-4.3672,0.4531,-0.6382,-201.22,-292.68,-558.41
888,1424172629,-5.0171,0.5068,-0.6172,-201.71,-285.30,-591.83
889,1424177629,-5.7773,0.5483,-0.6255,-202.93,-276.16,-625.12
890,1424182629,-6.4497,0.5752,-0.6411,-204.51,-266.89,-651.52
891,1424187629,-7.5474,0.6431,-0.6133,-207.93,-249.09,-691.46
892,1424192628,-8.3745,0.7549,-0.7041,-212.62,-230.12,-725.00
893,1424197630,-8.9634,0.7969,-0.8086,-217.07,-212.44,-752.56
894,1424202629,-9.4307,0.8320,-1.0786,-223.60,-188.11,-787.74
895,1424207629,-9.8755,0.8628,-1.4473,-232.93,-155.98,-832.01
896,1424212628,-10.2261,0.9189,-1.6958,-241.59,-126.28,-871.10
897,1424217629,-10.4473,1.0430,-1.8647,-249.15,-92.26,-913.23
898,1424222628,-10.5601,1.1309,-1.9561,-252.01,-60.98,-949.45
899,1424227627,-10.8096,1.2397,-2.0615,-249.33,-16.16,-997.01
900,1424232627,-11.2773,1.3320,-2.2534,-237.44,44.76,-1056.10
901,1424237629,-11.8691,1.4180,-2.4409,-222.87,99.33,-1104.88
902,1424242632,-12.6143,1.5591,-2.5894,-208.66,156.65,-1152.56
903,1424247629,-13.3950,1.7148,-2.6743,-196.65,215.37,-1198.48
904,1424252628,-14.1357,1.9536,-2.6880,-187.38,275.79,-1242.26
905,1424257627,-14.9199,2.2954,-2.6758,-181.59,338.11,-1284.27
906,1424262630,-15.8066,2.6299,-2.6191,-179.27,402.01,-1324.33
907,1424267631,-15.9941,2.9976,-2.5786,-178.60,466.28,-1361.59
908,1424272628,-16.0000,3.3213,-2.4497,-178.78,517.26,-1388.60
909,1424277629,-16.0000,3.7588,-2.3965,-176.77,593.23,-1423.96
910,1424282629,-16.0000,4.1196,-2.3218,-169.02,655.49,-1448.35
911,1424287627,-16.0000,4.4487,-2.0908,-158.35,702.32,-1465.12
912,1424292627,-16.0000,5.2183,-1.6753,-131.83,769.57,-1488.11
913,1424297629,-16.0000,5.6274,-1.5146,-106.40,820.91,-1504.94
914,1424302627,-16.0000,5.9346,-1.2109,-85.24,866.22,-1513.11
915,1424307627,-16.0000,6.5439,-0.9565,-76.46,898.48,-1512.20
916,1424312627,-16.0000,7.4424,-0.4341,-78.05,941.95,-1499.70
917,1424317629,-16.0000,7.8662,0.3979,-87.32,976.59,-1473.41
918,1424322629,-16.0000,8.6328,0.8193,-106.04,1009.63,-1428.17
919,1424327630,-16.0000,9.4028,1.0815,-126.71,1037.99,-1367.26
920,1424332627,-16.0000,9.7441,2.5737,-147.38,1070.24,-1292.99
921,1424337629,-16.0000,9.8296,3.1665,-185.18,1107.26,-1207.13
922,1424342628,-16.0000,10.1816,3.3867,-257.62,1145.43,-1113.66
923,1424347627,-16.0000,10.2070,4.3359,-378.66,1192.44,-1013.41
924,1424352628,-16.0000,9.6587,4.8091,-514.70,1239.70,-926.89
925,1424357627,-16.0000,9.3008,5.0908,-720.24,1304.39,-807.44
926,1424362630,-16.0000,8.6611,5.9189,-998.96,1391.16,-641.04
927,1424368144,-16.0000,7.6616,6.2627,-1232.99,1461.04,-478.41
928,1424372629,-16.0000,6.5229,6.3496,-1446.04,1513.23,-292.07
929,1424377629,-16.0000,5.4912,6.4004,-1628.05,1527.20,-85.67
930,1424382876,-16.0000,4.4492,6.2046,-1785.79,1517.38,127.38
931,1424387629,-15.5127,3.5005,5.7437,-1919.15,1458.11,336.59
932,1424392628,-14.0991,2.6479,5.3652,-1998.05,1355.91,531.28
933,1424397629,-12.8623,1.8672,4.9136,-1998.05,1214.57,705.06
934,1424402627,-12.0259,1.2192,4.4863,-1998.05,1043.35,850.67
935,1424407629,-11.8247,1.1206,4.2397,-1998.05,853.29,963.29
936,1424412628,-11.9927,1.1968,3.7637,-1998.05,656.52,1036.71
937,1424417629,-11.9863,1.2329,2.9058,-1809.39,468.35,1069.27
938,1424422629,-11.9653,1.2578,2.3735,-1556.95,297.74,1066.28
939,1424427629,-11.9385,0.9863,2.0107,-1256.77,150.55,1036.28
940,1424432628,-11.4546,0.8203,1.1343,-929.57,37.13,990.55
941,1424437629,-11.4282,0.4761,1.0542,-615.37,-49.27,935.12
942,1424442629,-11.2290,-0.1211,1.2002,-342.74,-117.80,877.93
943,1424447629,-10.5166,-0.8892,0.7446,-132.20,-170.55,823.90
944,1424452627,-10.0435,-1.2261,0.7769,16.16,-214.21,775.55
945,1424457627,-9.6040,-1.4438,0.9927,111.52,-252.13,732.44
946,1424462629,-9.1416,-1.4673,0.9658,170.55,-283.60,694.82
947,1424467629,-8.8228,-1.4443,1.0928,211.52,-308.72,662.50
948,1424472629,-8.5386,-1.3662,1.2466,247.62,-327.80,635.43
949,1424477629,-8.2432,-1.1904,1.1973,283.96,-339.63,613.54
950,1424482629,-7.9932,-0.9717,1.2422,320.18,-345.06,596.10
951,1424487629,-7.8477,-0.7700,1.4644,352.62,-343.84,582.26
952,1424492629,-7.7231,-0.6104,1.6362,373.54,-335.24,571.10
953,1424497630,-7.6299,-0.4155,1.7129,374.27,-321.16,560.12
954,1424502629,-7.2842,-0.2573,1.6704,350.55,-305.55,545.98
955,1424507629,-6.6162,-0.1768,1.5327,305.12,-290.49,528.17
956,1424512629,-6.0010,-0.0688,1.4390,245.43,-276.71,506.89
957,1424517629,-5.5474,0.0464,1.3960,177.74,-264.27,481.95
958,1424523117,-5.1436,0.1470,1.3198,107.56,-253.54,453.60
959,1424527629,-4.7119,0.1777,1.2124,39.94,-244.27,423.17
960,1424532854,-4.3550,0.1641,1.0942,-19.02,-237.07,392.07
961,1424537629,-4.1938,0.1616,0.9839,-65.06,-231.34,362.20
962,1424542627,-4.1279,0.1655,0.8740,-95.98,-226.65,334.76
963,1424547774,-4.0356,0.1724,0.7803,-112.20,-222.80,310.18
964,1424552628,-3.8892,0.2090,0.7041,-115.24,-219.15,288.84
965,1424557627,-3.7231,0.2656,0.6519,-108.29,-215.24,270.61
966,1424562629,-3.5483,0.3306,0.6108,-94.82,-210.55,255.24
967,1424567727,-3.3638,0.4253,0.5845,-78.66,-205.43,242.07
968,1424572627,-3.1797,0.5376,0.5635,-63.90,-199.51,230.85
969,1424577627,-3.1118,0.6548,0.4932,-53.41,-193.48,221.16
970,1424582627,-3.1558,0.7285,0.3740,-47.68,-188.60,212.74
971,1424587627,-3.1592,0.7842,0.2783,-45.18,-185.12,205.79
972,1424592627,-3.0884,0.8105,0.2056,-44.39,-182.68,200.43
973,1424597627,-2.9868,0.8062,0.1445,-44.15,-180.61,196.46
974,1424602627,-2.8379,0.8213,0.0908,-42.68,-178.35,193.78
975,1424607627,-2.7046,0.8320,0.0625,-39.57,-176.52,192.20
976,1424612633,-2.5234,0.8457,0.0508,-30.49,-172.80,190.67
977,1424617841,-2.3823,0.8438,0.0615,-18.11,-168.54,189.82
978,1424622629,-2.2705,0.8574,0.0889,-2.01,-162.74,189.39
979,1424627628,-2.1719,0.8770,0.1196,15.98,-155.79,189.15
980,1424632629,-2.0674,0.8901,0.1548,34.27,-147.68,188.84
981,1424637628,-1.9810,0.9097,0.1963,50.55,-138.48,188.72
982,1424642627,-1.9307,0.9360,0.2178,63.05,-128.54,188.23
983,1424647627,-1.8892,0.9585,0.2490,71.04,-118.72,187.56
984,1424652627,-1.8037,0.9707,0.2739,74.70,-108.72,186.77
985,1424657627,-1.6875,0.9614,0.3135,74.82,-98.90,185.85
986,1424662627,-1.5991,0.9497,0.3481,71.95,-88.96,185.24
987,1424667627,-1.5605,0.9468,0.3716,66.34,-79.39,185.00
988,1424672627,-1.5361,0.9492,0.3789,57.99,-70.24,184.94
989,1424677627,-1.4976,0.9478,0.3940,49.76,-63.54,184.76
990,1424682627,-1.4365,0.9512,0.4033,37.80,-55.79,184.82
991,1424687627,-1.3726,0.9517,0.4146,24.51,-48.84,184.82
992,1424692627,-1.3086,0.9570,0.4263,10.30,-42.38,184.76
993,1424697627,-1.2515,0.9629,0.4336,-4.63,-36.89,184.57
994,1424702627,-1.2202,0.9761,0.4355,-20.06,-32.13,184.27
995,1424707627,-1.1782,0.9834,0.4297,-34.70,-28.54,183.72
996,1424712632,-1.1094,0.9673,0.4312,-50.06,-25.24,182.62
997,1424717631,-1.0293,0.9429,0.4258,-59.45,-23.35,181.95
998,1424722628,-0.9521,0.9146,0.4316,-65.24,-22.01,181.40
999,1424727629,-0.8760,0.8872,0.4453,-67.32,-20.91,181.16
1000,1424732628,-0.8052,0.8662,0.4502,-65.91,-20.06,181.10
1001,1424737629,-0.7490,0.8511,0.4653,-61.46,-19.63,181.16
1002,1424742628,-0.7002,0.8335,0.4805,-54.39,-19.09,181.10
1003,1424747627,-0.6362,0.8130,0.4888,-45.61,-18.84,180.73
1004,1424752627,-0.5542,0.7925,0.5112,-35.73,-18.48,180.30
1005,1424757627,-0.4756,0.7686,0.5366,-25.55,-17.93,179.57
1006,1424762627,-0.4141,0.7388,0.5474,-16.28,-17.20,178.41
1007,1424767629,-0.3633,0.7148,0.5684,-8.66,-16.71,177.07
1008,1424772628,-0.3145,0.6963,0.5776,-3.17,-15.98,175.49
1009,1424777629,-0.2827,0.6841,0.6055,-0.55,-15.55,173.48
1010,1424782627,-0.2632,0.6709,0.6108,-0.49,-15.24,171.16
1011,1424787627,-0.2529,0.6494,0.6187,-2.87,-15.00,168.54
1012,1424792627,-0.2173,0.6328,0.6206,-6.77,-15.18,165.73
1013,1424797627,-0.1865,0.6304,0.6235,-11.59,-15.24,162.80
1014,1424802629,-0.1587,0.6299,0.6367,-16.59,-15.49,159.45
1015,1424807627,-0.1133,0.6172,0.6406,-21.10,-15.73,155.98
1016,1424812627,-0.0679,0.6113,0.6470,-24.51,-15.79,152.38
1017,1424817629,-0.0264,0.6089,0.6514,-26.71,-15.73,148.54
1018,1424822628,0.0044,0.6118,0.6504,-27.62,-15.55,144.70
1019,1424827627,0.0186,0.6157,0.6455,-27.44,-15.18,140.79
1020,1424832627,0.0264,0.6201,0.6475,-26.16,-14.88,136.65
1021,1424837630,0.0322,0.6240,0.6450,-24.09,-14.51,132.50
1022,1424842628,0.0352,0.6118,0.6455,-21.34,-14.15,128.48
1023,1424847627,0.0361,0.6025,0.6401,-18.05,-13.72,124.45
1024,1424852629,0.0278,0.5894,0.6323,-14.76,-13.29,120.73
1025,1424857628,0.0308,0.5742,0.6235,-11.77,-12.74,117.01
1026,1424862629,0.0317,0.5679,0.6162,-9.76,-12.56,113.41
1027,1424867629,0.0371,0.5498,0.6147,-8.66,-12.26,109.94
1028,1424872629,0.0586,0.5381,0.6123,-8.84,-11.89,106.59
1029,1424877627,0.0728,0.5288,0.6167,-10.18,-11.65,103.29
1030,1424882631,0.0962,0.5190,0.6265,-12.74,-11.28,100.06
1031,1424887631,0.1006,0.5117,0.6372,-16.59,-10.85,97.01
1032,1424892628,0.0928,0.5112,0.6304,-21.71,-10.43,94.09
1033,1424897629,0.0654,0.5054,0.6240,-27.80,-10.18,91.10
1034,1424902629,0.0488,0.5054,0.6211,-34.27,-10.06,88.05
1035,1424907629,0.0552,0.4941,0.6235,-40.67,-9.94,85.91
1036,1424912628,0.0811,0.4883,0.6294,-46.34,-9.88,83.23
1037,1424917627,0.1030,0.4878,0.6313,-50.85,-9.45,80.79
1038,1424922630,0.1035,0.4829,0.6357,-54.27,-9.09,78.35
1039,1424927629,0.0962,0.4810,0.6328,-56.04,-8.72,76.10
1040,1424932628,0.0981,0.4824,0.6392,-56.16,-8.23,73.90
1041,1424937629,0.1138,0.4834,0.6387,-54.39,-7.68,71.71
1042,1424942629,0.1401,0.4888,0.6479,-50.85,-7.13,69.33
1043,1424947627,0.1812,0.4844,0.6636,-45.79,-6.40,66.83
1044,1424952627,0.2109,0.4736,0.6802,-39.63,-5.49,64.57
1045,1424957627,0.2241,0.4839,0.6860,-33.17,-4.33,62.32
1046,1424962627,0.2222,0.4790,0.6890,-27.07,-3.29,60.06
1047,1424967721,0.2134,0.4814,0.6948,-21.83,-2.44,58.05
1048,1424972716,0.2192,0.4731,0.7065,-18.17,-1.59,55.91
1049,1424977629,0.2295,0.4653,0.7075,-16.34,-0.98,53.84
1050,1424982628,0.2451,0.4561,0.7168,-16.22,-0.37,51.77
1051,1424987629,0.2529,0.4521,0.7246,-17.87,0.06,49.63
1052,1424992629,0.2529,0.4497,0.7305,-21.16,0.49,47.62
1053,1424997627,0.2471,0.4487,0.7349,-25.73,0.85,45.49
1054,1425002628,0.2583,0.4429,0.7476,-31.40,1.28,43.41
1055,1425007627,0.2598,0.4375,0.7539,-37.87,1.52,41.40
1056,1425012627,0.2402,0.4346,0.7520,-44.82,1.71,39.45
1057,1425017627,0.2241,0.4355,0.7554,-51.46,1.89,37.68
1058,1425022629,0.2202,0.4312,0.7617,-57.56,1.71,35.79
1059,1425027630,0.2163,0.4194,0.7588,-62.38,1.71,34.02
1060,1425032627,0.2275,0.4136,0.7671,-65.24,1.28,32.26
1061,1425037630,0.2456,0.4038,0.7778,-66.10,1.22,30.61
1062,1425042630,0.2559,0.3901,0.7832,-65.00,1.10,29.15
1063,1425047628,0.2480,0.3828,0.7827,-62.07,0.98,27.62
1064,1425052631,0.2476,0.3799,0.7808,-57.56,0.85,26.16
1065,1425057629,0.2612,0.3721,0.7842,-51.59,0.37,24.51
1066,1425062629,0.2827,0.3550,0.7842,-44.45,0.00,22.99
1067,1425067629,0.2983,0.3496,0.7920,-36.40,-0.37,21.40
1068,1425072666,0.3223,0.3555,0.8042,-28.23,-0.79,19.82
1069,1425077629,0.3291,0.3486,0.8032,-20.24,-1.10,18.11
1070,1425082726,0.3301,0.3491,0.7979,-13.11,-1.46,16.46
1071,1425087627,0.3408,0.3535,0.7993,-7.01,-2.01,14.76
1072,1425092629,0.3511,0.3550,0.8081,-2.20,-2.62,12.99
1073,1425097628,0.3486,0.3521,0.8096,1.34,-3.29,11.34
1074,1425102629,0.3477,0.3555,0.8135,3.48,-3.84,9.76
1075,1425107719,0.3442,0.3486,0.8120,4.15,-4.45,8.29
1076,1425112629,0.3325,0.3491,0.8169,3.48,-5.00,6.89
1077,1425117628,0.3169,0.3594,0.8081,1.40,-5.61,5.61
1078,1425122627,0.3032,0.3525,0.8018,-1.83,-6.28,4.33
1079,1425127627,0.3076,0.3535,0.8081,-5.49,-6.95,3.17
1080,1425132629,0.3203,0.3452,0.8228,-9.21,-7.62,2.01
1081,1425137627,0.3374,0.3374,0.8247,-12.68,-7.99,0.98
1082,1425142628,0.3335,0.3433,0.8364,-15.79,-8.35,-0.06
1083,1425147627,0.3276,0.3477,0.8345,-18.66,-8.60,-0.98
1084,1425152627,0.3062,0.3594,0.8369,-21.04,-8.84,-2.07
1085,1425157627,0.2783,0.3667,0.8330,-22.99,-9.15,-3.11
1086,1425162627,0.2559,0.3657,0.8262,-24.09,-9.39,-4.09
1087,1425168394,0.2427,0.3643,0.8228,-23.78,-9.51,-5.00
1088,1425172629,0.2344,0.3613,0.8257,-22.32,-9.70,-5.79
1089,1425177628,0.2256,0.3560,0.8184,-19.57,-9.76,-6.71
1090,1425182629,0.2314,0.3560,0.8135,-15.67,-9.94,-7.50
1091,1425187628,0.2402,0.3550,0.8120,-11.46,-9.94,-8.35
1092,1425192627,0.2397,0.3535,0.8149,-6.89,-10.00,-9.33
1093,1425197628,0.2437,0.3555,0.8110,-2.50,-10.12,-10.30
1094,1425202628,0.2437,0.3486,0.7920,1.16,-10.30,-11.40
1095,1425207712,0.2485,0.3423,0.7944,3.96,-10.73,-12.56
1096,1425212682,0.2578,0.3384,0.8037,5.49,-11.16,-13.84
1097,1425217632,0.2739,0.3384,0.8110,5.61,-11.59,-14.88
1098,1425222629,0.2852,0.3403,0.8184,4.33,-12.32,-16.10
1099,1425227628,0.2866,0.3438,0.8149,1.34,-12.93,-17.38
1100,1425232629,0.2871,0.3481,0.8145,-2.93,-13.66,-18.66
1101,1425237629,0.2837,0.3560,0.8115,-8.54,-14.45,-20.12
1102,1425242627,0.2686,0.3599,0.8105,-14.76,-15.30,-21.71
1103,1425247627,0.2539,0.3662,0.8071,-20.91,-16.16,-23.54
1104,1425252627,0.2432,0.3667,0.7930,-26.40,-17.07,-25.30
1105,1425257627,0.2407,0.3706,0.7847,-30.55,-17.87,-27.38
1106,1425262629,0.2344,0.3687,0.7759,-32.87,-18.84,-29.45
1107,1425267628,0.2441,0.3555,0.7729,-32.68,-19.63,-31.65
1108,1425272629,0.2520,0.3564,0.7744,-30.12,-20.12,-33.78
1109,1425277629,0.2593,0.3579,0.7627,-25.73,-20.55,-35.91
1110,1425282627,0.2681,0.3491,0.7695,-19.70,-20.85,-38.11
1111,1425287628,0.2676,0.3369,0.7593,-12.74,-20.98,-40.06
1112,1425292630,0.2500,0.3472,0.7554,-5.43,-21.22,-41.89
1113,1425297629,0.2378,0.3525,0.7510,1.46,-21.34,-43.96
1114,1425302628,0.2397,0.3599,0.7480,7.80,-21.83,-45.91
1115,1425307627,0.2407,0.3618,0.7354,13.23,-21.95,-47.99
1116,1425312631,0.2412,0.3633,0.7329,17.62,-22.56,-49.94
1117,1425317628,0.2334,0.3667,0.7349,21.04,-23.05,-51.71
1118,1425322629,0.2271,0.3740,0.7314,23.29,-23.54,-53.60
1119,1425327629,0.2197,0.3818,0.7368,24.15,-24.09,-55.49
1120,1425332627,0.2104,0.3862,0.7290,23.78,-24.63,-57.32
1121,1425337628,0.2002,0.3931,0.7231,22.01,-25.00,-59.09
1122,1425342629,0.1797,0.3999,0.7163,19.02,-25.49,-61.04
1123,1425347629,0.1680,0.4121,0.7012,15.24,-26.16,-62.74
1124,1425352627,0.1543,0.4263,0.6948,10.79,-26.95,-64.76
1125,1425357627,0.1484,0.4375,0.6938,6.34,-27.74,-66.77
1126,1425362627,0.1440,0.4458,0.6846,2.32,-28.35,-68.78
1127,1425367627,0.1426,0.4575,0.6743,-1.10,-28.96,-70.73
1128,1425372627,0.1270,0.4658,0.6665,-3.41,-29.51,-72.62
1129,1425377631,0.1250,0.4639,0.6592,-4.57,-29.94,-74.70
1130,1425383323,0.1206,0.4580,0.6606,-4.27,-30.43,-76.65
1131,1425387629,0.1152,0.4487,0.6528,-2.68,-30.73,-78.29
1132,1425392629,0.1099,0.4458,0.6499,0.24,-31.10,-79.88
1133,1425397627,0.1050,0.4434,0.6465,4.09,-31.34,-81.46
1134,1425402628,0.0908,0.4438,0.6494,8.84,-31.46,-82.80
1135,1425407629,0.0898,0.4409,0.6509,13.84,-31.77,-84.27
1136,1425412629,0.0923,0.4414,0.6523,19.02,-31.89,-85.79
1137,1425417628,0.0923,0.4336,0.6533,23.48,-32.01,-87.32
1138,1425422629,0.0830,0.4404,0.6450,27.01,-32.26,-88.72
1139,1425427629,0.0610,0.4409,0.6543,29.09,-32.62,-90.30
1140,1425432629,0.0435,0.4429,0.6431,29.63,-33.17,-92.13
1141,1425437628,0.0239,0.4414,0.6343,28.84,-33.90,-94.02
1142,1425442629,0.0103,0.4404,0.6211,26.89,-34.57,-96.10
1143,1425447628,0.0083,0.4453,0.6196,23.90,-35.55,-98.29
1144,1425452629,-0.0015,0.4551,0.6152,20.73,-36.40,-100.67
1145,1425457627,-0.0200,0.4609,0.6104,17.50,-37.38,-103.41
1146,1425462630,-0.0391,0.4683,0.5938,14.70,-38.41,-106.34
1147,1425467628,-0.0586,0.4727,0.5898,12.80,-39.82,-109.39
1148,1425472627,-0.0601,0.4746,0.5771,12.20,-40.98,-112.62
1149,1425477630,-0.0566,0.4668,0.5640,13.11,-42.50,-115.91
1150,1425482629,-0.0522,0.4648,0.5635,15.98,-43.84,-118.96
1151,1425487627,-0.0625,0.4697,0.5645,20.49,-45.06,-121.83
1152,1425492627,-0.0693,0.4780,0.5664,26.04,-46.16,-124.76
1153,1425497630,-0.0820,0.4751,0.5571,32.07,-47.56,-127.56
1154,1425502629,-0.0894,0.4766,0.5596,38.29,-48.84,-130.18
1155,1425507627,-0.1011,0.4922,0.5488,43.90,-50.43,-132.74
1156,1425512627,-0.1104,0.5083,0.5493,48.96,-52.20,-135.18
1157,1425517627,-0.1245,0.5239,0.5444,52.87,-54.09,-137.87
1158,1425522627,-0.1494,0.5420,0.5420,55.85,-56.10,-140.61
1159,1425527627,-0.1528,0.5645,0.5479,58.05,-58.35,-143.48
1160,1425532627,-0.1489,0.5825,0.5435,59.63,-60.43,-146.52
1161,1425537627,-0.1499,0.5986,0.5488,60.85,-62.50,-149.76
1162,1425542632,-0.1733,0.6147,0.5508,61.77,-64.63,-153.17
1163,1425547629,-0.1948,0.6260,0.5439,62.56,-66.65,-156.77
1164,1425552628,-0.2080,0.6279,0.5405,63.54,-68.84,-160.43
1165,1425557629,-0.2300,0.6309,0.5332,65.00,-71.04,-164.02
1166,1425562628,-0.2461,0.6392,0.5298,66.95,-73.29,-167.68
1167,1425567629,-0.2485,0.6401,0.5308,69.33,-75.55,-171.16
1168,1425572627,-0.2529,0.6465,0.5361,72.07,-77.74,-174.82
1169,1425577629,-0.2710,0.6587,0.5352,74.76,-80.18,-178.35
1170,1425582629,-0.2905,0.6714,0.5254,77.20,-82.44,-181.95
1171,1425587627,-0.3081,0.6958,0.5342,79.09,-84.70,-185.73
1172,1425592627,-0.3291,0.7109,0.5190,80.37,-87.26,-189.33
1173,1425597629,-0.3555,0.7305,0.5122,80.91,-89.76,-192.68
1174,1425602628,-0.3892,0.7407,0.4971,81.16,-92.44,-196.16
1175,1425607627,-0.4316,0.7520,0.4893,81.28,-94.76,-199.02
1176,1425612628,-0.4624,0.7686,0.4780,81.40,-97.32,-201.71
1177,1425617629,-0.4780,0.7969,0.4805,81.77,-100.00,-204.09
1178,1425622628,-0.4854,0.8281,0.4790,82.38,-102.80,-206.52
1179,1425627627,-0.4922,0.8423,0.4751,83.54,-105.43,-208.96
1180,1425632627,-0.5127,0.8633,0.4688,85.06,-107.99,-211.22
1181,1425637657,-0.5415,0.8804,0.4673,86.95,-110.61,-213.41
1182,1425642628,-0.5757,0.8916,0.4585,88.90,-113.23,-215.37
1183,1425647629,-0.6025,0.8994,0.4517,91.34,-116.16,-217.01
1184,1425652627,-0.6323,0.9136,0.4429,93.96,-118.96,-218.48
1185,1425657630,-0.6562,0.9263,0.4277,97.32,-121.83,-219.82
1186,1425662628,-0.6812,0.9414,0.4199,100.61,-124.82,-221.04
1187,1425667627,-0.6982,0.9585,0.4155,104.39,-127.80,-222.32
1188,1425672627,-0.7129,0.9697,0.4058,108.17,-130.73,-223.41
1189,1425677627,-0.7383,0.9800,0.3940,112.01,-133.96,-224.51
1190,1425682627,-0.7583,0.9941,0.3882,115.61,-137.01,-225.55
1191,1425687629,-0.7637,1.0156,0.3799,118.96,-140.00,-226.59
1192,1425692631,-0.7578,1.0391,0.3857,121.65,-142.93,-227.56
1193,1425697915,-0.7612,1.0708,0.3721,123.48,-145.73,-228.54
1194,1425702630,-0.7954,1.1074,0.3623,124.39,-148.72,-229.45
1195,1425707628,-0.8354,1.1558,0.3560,124.45,-151.46,-229.94
1196,1425712627,-0.8599,1.1997,0.3535,123.90,-154.09,-230.55
1197,1425717629,-0.8647,1.2344,0.3540,123.23,-156.59,-230.91
1198,1425722627,-0.8564,1.2686,0.3569,122.68,-158.78,-231.22
1199,1425727802,-0.8501,1.3066,0.3584,122.26,-160.79,-231.16
1200,1425732629,-0.8540,1.3481,0.3511,121.59,-162.68,-231.04
1201,1425737631,-0.8579,1.3804,0.3486,120.43,-164.27,-230.79
1202,1425742629,-0.8774,1.4170,0.3418,119.02,-165.91,-230.24
1203,1425747627,-0.8984,1.4429,0.3394,117.07,-167.44,-229.57
1204,1425752631,-0.9077,1.4741,0.3364,115.00,-168.60,-228.60
1205,1425757630,-0.9121,1.5029,0.3423,112.44,-169.88,-227.38
1206,1425762628,-0.9199,1.5269,0.3530,109.63,-170.85,-225.98
1207,1425767629,-0.9458,1.5581,0.3496,106.40,-171.77,-224.33
1208,1425772629,-0.9746,1.5898,0.3408,103.41,-172.62,-222.32
1209,1425777627,-0.9858,1.6206,0.3438,100.79,-173.48,-219.82
1210,1425782629,-0.9727,1.6499,0.3555,98.78,-174.09,-217.01
1211,1425787627,-0.9517,1.6880,0.3604,97.93,-174.63,-213.72
1212,1425792627,-0.9360,1.7222,0.3652,97.99,-175.24,-210.00
1213,1425797627,-0.9272,1.7554,0.3662,99.02,-175.61,-205.55
1214,1425802628,-0.9141,1.7979,0.3721,100.30,-176.10,-200.43
1215,1425807627,-0.9058,1.8413,0.3799,101.40,-176.59,-194.63
1216,1425812627,-0.9189,1.8887,0.3721,101.95,-177.26,-188.41
1217,1425817627,-0.9497,1.9331,0.3682,100.85,-177.93,-181.52
1218,1425822627,-0.9707,1.9668,0.3491,98.11,-178.66,-174.51
1219,1425827818,-0.9463,1.9937,0.3359,93.72,-179.33,-167.01
1220,1425832629,-0.9116,2.0176,0.3325,87.80,-180.06,-159.45
1221,1425837628,-0.8623,2.0352,0.3262,81.34,-180.37,-151.77
1222,1425842629,-0.8188,2.0547,0.3276,74.70,-180.43,-144.02
1223,1425847627,-0.7827,2.0669,0.3379,68.72,-179.94,-136.34
1224,1425852629,-0.7432,2.0708,0.3525,63.84,-179.15,-128.66
1225,1425857629,-0.7109,2.0781,0.3677,60.30,-177.99,-120.91
1226,1425862642,-0.6821,2.0786,0.3765,57.56,-176.40,-113.11
1227,1425867627,-0.6572,2.0806,0.3804,55.49,-174.70,-105.30
1228,1425872627,-0.6387,2.0845,0.3906,53.48,-172.80,-97.26
1229,1425877627,-0.6260,2.0854,0.3955,51.16,-170.98,-89.21
1230,1425882627,-0.6050,2.0923,0.4023,48.29,-169.02,-81.28
1231,1425887627,-0.5879,2.0889,0.4131,44.76,-167.32,-73.48
1232,1425892627,-0.5723,2.0864,0.4106,40.67,-165.55,-65.67
1233,1425898582,-0.5679,2.0762,0.4180,34.70,-163.90,-56.89
1234,1425902632,-0.5688,2.0640,0.4155,30.18,-163.05,-51.04
1235,1425907628,-0.5640,2.0474,0.4062,23.66,-162.20,-44.15
1236,1425912629,-0.5449,2.0264,0.4146,16.59,-161.83,-37.32
1237,1425917627,-0.5205,1.9961,0.4097,9.15,-161.52,-30.67
1238,1425922627,-0.4912,1.9731,0.4033,1.71,-161.46,-24.21
1239,1425927628,-0.4678,1.9390,0.4121,-5.24,-161.52,-17.99
