# skilleye imu stream v1
# device=xiao_esp32c6 imu=mpu6050 addr=0x68
# rate_hz=200 accel_range_g=16 gyro_range_dps=2000 dlpf_hz=94
# units: accel in g, gyro in deg/s, t_us in microseconds since boot (monotonic)
# no shared clock with the camera -- tap the racket once before each take
# so both recordings share a spike to align on
seq,t_us,ax,ay,az,gx,gy,gz
0,1393107628,0.7710,0.6318,0.3657,25.37,6.46,-47.87
1,1393112627,0.7710,0.6382,0.3696,25.67,7.20,-49.15
2,1393117630,0.7764,0.6431,0.3745,25.79,8.17,-50.73
3,1393122627,0.7783,0.6455,0.3745,25.73,9.27,-52.44
4,1393127627,0.7852,0.6235,0.3823,25.79,10.12,-54.02
5,1393132627,0.7759,0.6396,0.3760,25.79,11.34,-55.55
6,1393137627,0.7612,0.6499,0.3613,25.61,12.26,-57.13
7,1393142956,0.7412,0.6436,0.3740,25.37,13.29,-58.96
8,1393147630,0.7339,0.6362,0.3828,25.37,13.84,-59.94
9,1393152629,0.7251,0.6431,0.3755,25.67,14.57,-61.22
10,1393157631,0.7109,0.6445,0.3716,26.28,15.00,-62.50
11,1393162629,0.6870,0.6436,0.3740,27.07,15.43,-63.41
12,1393167630,0.6772,0.6357,0.3799,28.17,15.43,-64.09
13,1393172629,0.6714,0.6343,0.3750,29.45,15.37,-64.57
14,1393177628,0.6631,0.6396,0.3677,30.79,15.18,-64.94
15,1393182629,0.6523,0.6523,0.3716,32.32,15.06,-65.30
16,1393187628,0.6421,0.6548,0.3857,33.78,15.06,-65.79
17,1393192629,0.6450,0.6577,0.3877,35.30,15.00,-66.28
18,1393197630,0.6460,0.6680,0.3896,36.52,15.12,-66.77
19,1393202630,0.6514,0.6680,0.3818,37.80,15.24,-67.44
20,1393207629,0.6514,0.6665,0.3799,38.78,15.12,-68.05
21,1393212627,0.6279,0.6484,0.3818,40.24,14.94,-68.54
22,1393217773,0.6753,0.6289,0.3828,42.93,14.88,-68.84
23,1393222629,0.7031,0.6348,0.3857,44.70,14.63,-68.72
24,1393227627,0.6987,0.6348,0.3696,46.40,14.02,-68.72
25,1393232630,0.6890,0.6313,0.3647,47.80,13.17,-68.41
26,1393237628,0.6367,0.7061,0.3911,48.96,12.32,-68.60
27,1393242629,0.5977,0.7041,0.4214,50.49,11.16,-69.15
28,1393247630,0.5771,0.7109,0.4434,52.07,10.00,-69.57
29,1393252629,0.5728,0.7217,0.4424,52.93,8.66,-70.06
30,1393257628,0.5859,0.7290,0.4307,52.87,7.32,-70.24
31,1393262629,0.6284,0.7217,0.4370,51.22,6.22,-70.12
32,1393267627,0.6382,0.7417,0.4014,47.62,5.37,-69.51
33,1393272629,0.6475,0.7559,0.3989,42.26,4.76,-68.66
34,1393277627,0.6245,0.7573,0.3892,36.04,4.15,-67.38
35,1393282630,0.6094,0.7529,0.3901,30.18,3.11,-65.49
36,1393287629,0.6191,0.7817,0.4292,24.63,1.71,-62.62
37,1393292629,0.6401,0.8037,0.4600,22.44,0.73,-60.61
38,1393297628,0.6763,0.8354,0.4888,21.65,-0.24,-58.11
39,1393302628,0.6626,0.8545,0.4863,22.32,-1.10,-55.55
40,1393307629,0.6943,0.8540,0.5020,23.96,-1.95,-52.99
41,1393312627,0.6577,0.8584,0.4897,26.22,-2.68,-50.55
42,1393317627,0.6216,0.8555,0.5000,28.17,-3.60,-48.23
43,1393322631,0.6191,0.8652,0.4976,29.27,-4.70,-45.98
44,1393327629,0.6528,0.8633,0.5181,29.51,-5.67,-43.78
45,1393332628,0.7075,0.8682,0.5249,28.96,-6.46,-41.77
46,1393337629,0.7334,0.8892,0.5117,28.35,-7.20,-39.45
47,1393342627,0.7280,0.9038,0.5039,27.87,-7.93,-37.01
48,1393347627,0.7349,0.9131,0.5005,27.38,-8.60,-34.33
49,1393352631,0.7363,0.9165,0.4893,26.77,-9.63,-31.46
50,1393357627,0.7676,0.8975,0.5444,26.04,-10.61,-28.29
51,1393362627,0.7808,0.8984,0.5166,25.06,-11.77,-25.24
52,1393367627,0.7856,0.8892,0.5107,23.66,-13.23,-22.01
53,1393372630,0.8120,0.8633,0.5210,22.20,-14.88,-18.84
54,1393377629,0.8506,0.8335,0.5176,20.98,-16.59,-15.30
55,1393382627,0.8828,0.8154,0.4941,20.43,-18.35,-11.52
56,1393387627,0.8979,0.8193,0.4922,20.18,-20.06,-7.50
57,1393392630,0.9116,0.8330,0.4971,20.67,-21.71,-3.54
58,1393397718,0.9175,0.8550,0.5083,21.40,-23.66,0.98
59,1393402629,0.9214,0.8721,0.5186,21.83,-24.76,3.78
60,1393407627,0.9321,0.8950,0.5298,21.89,-26.04,6.89
61,1393412628,0.9600,0.9199,0.5293,21.04,-27.01,9.70
62,1393417629,0.9834,0.9341,0.5298,19.45,-28.11,12.01
63,1393422631,0.9863,0.9561,0.5190,17.56,-29.15,14.02
64,1393427723,0.9673,0.9346,0.5410,15.73,-30.49,15.91
65,1393432627,0.9585,0.9722,0.4951,15.18,-31.71,17.01
66,1393437631,0.9458,0.9341,0.5298,15.98,-33.29,17.99
67,1393442627,0.9292,0.8848,0.5078,16.89,-34.94,19.51
68,1393447627,0.9111,0.8779,0.5063,17.07,-36.16,21.40
69,1393452630,0.8960,0.8813,0.4487,15.85,-37.01,23.60
70,1393457629,0.8755,0.9004,0.4487,13.78,-37.62,26.22
71,1393462627,0.8481,0.9297,0.4224,11.16,-38.23,28.41
72,1393467628,0.8369,0.9473,0.4531,8.48,-38.90,30.43
73,1393472629,0.8184,0.9639,0.4561,5.79,-39.51,32.38
74,1393477627,0.8071,0.9775,0.4590,3.17,-40.30,33.96
75,1393482627,0.8096,0.9741,0.4463,0.24,-40.73,35.85
76,1393487631,0.8164,0.9751,0.4365,-1.46,-40.85,37.07
77,1393492627,0.8022,0.9570,0.4517,-3.23,-40.79,38.60
78,1393497628,0.7930,0.9351,0.4126,-4.33,-40.55,40.37
79,1393502629,0.7842,0.9111,0.3701,-5.67,-40.55,42.20
80,1393507627,0.7656,0.9326,0.3848,-7.26,-40.24,43.72
81,1393512627,0.7729,0.9541,0.3711,-8.72,-39.70,44.57
82,1393517630,0.7817,0.9448,0.3530,-10.98,-39.39,44.51
83,1393522629,0.7920,0.9312,0.3633,-13.84,-39.02,43.84
84,1393527627,0.8125,0.9097,0.3486,-17.50,-38.96,42.74
85,1393532627,0.7896,0.8853,0.3730,-21.16,-38.96,41.34
86,1393537627,0.7568,0.8525,0.3701,-23.23,-38.90,39.88
87,1393542629,0.7314,0.8213,0.3311,-23.54,-38.66,38.54
88,1393547627,0.7266,0.8018,0.3120,-22.38,-38.11,37.56
89,1393552627,0.7197,0.7881,0.3169,-20.43,-37.13,37.26
90,1393557627,0.7334,0.8032,0.3188,-18.23,-35.55,36.95
91,1393562627,0.7407,0.8701,0.3125,-16.40,-33.35,36.28
92,1393567627,0.7549,0.8286,0.2710,-14.94,-30.55,35.00
93,1393572630,0.7490,0.7710,0.2363,-14.27,-28.05,34.27
94,1393577629,0.7373,0.7593,0.2461,-13.96,-25.79,33.66
95,1393582627,0.7373,0.7427,0.2500,-13.78,-23.90,32.93
96,1393587628,0.7334,0.7642,0.2568,-13.90,-22.07,32.07
97,1393592629,0.7188,0.7876,0.2441,-14.57,-20.06,30.61
98,1393597628,0.6987,0.7744,0.2344,-15.79,-17.93,29.02
99,1393602629,0.6826,0.7666,0.2241,-17.56,-15.91,27.38
100,1393607628,0.6807,0.7412,0.2207,-19.57,-13.90,25.79
101,1393612868,0.6685,0.7144,0.2148,-21.77,-12.01,24.21
102,1393617629,0.6538,0.7104,0.2002,-23.05,-10.67,23.23
103,1393622627,0.6333,0.7134,0.1943,-24.09,-9.09,22.20
104,1393627630,0.6167,0.7241,0.1904,-24.15,-7.62,21.40
105,1393632629,0.6045,0.7280,0.1831,-23.48,-5.91,20.85
106,1393637726,0.5898,0.7363,0.1797,-22.07,-3.96,20.12
107,1393642629,0.5747,0.7354,0.1875,-20.91,-2.80,19.88
108,1393647630,0.5596,0.7358,0.1846,-19.33,-1.28,19.51
109,1393653088,0.5425,0.7432,0.1797,-17.50,0.30,19.39
110,1393657629,0.5361,0.7568,0.1885,-16.40,1.34,19.39
111,1393662630,0.5229,0.7700,0.1929,-15.06,2.62,19.45
112,1393667629,0.5229,0.7896,0.2012,-13.78,3.90,19.45
113,1393672627,0.5249,0.8120,0.2056,-12.50,5.06,19.45
114,1393677627,0.5244,0.8330,0.2168,-11.65,6.34,19.33
115,1393682627,0.5200,0.8340,0.2178,-11.04,7.62,19.09
116,1393687631,0.5181,0.8364,0.2100,-10.79,8.66,19.27
117,1393692627,0.5176,0.8389,0.2109,-11.04,9.76,19.57
118,1393697628,0.5190,0.8408,0.2144,-11.65,10.91,20.00
119,1393702629,0.5205,0.8452,0.2202,-12.80,11.77,20.43
120,1393707628,0.5181,0.8433,0.2217,-14.21,12.74,20.91
121,1393712629,0.5210,0.8423,0.2246,-15.85,13.66,21.46
122,1393717628,0.5288,0.8350,0.2271,-17.80,14.15,21.89
123,1393722629,0.5298,0.8296,0.2266,-19.76,14.76,22.20
124,1393727627,0.5249,0.8208,0.2388,-21.77,15.91,22.26
125,1393732627,0.5186,0.8037,0.2432,-23.60,18.48,22.38
126,1393737863,0.5122,0.7949,0.2461,-24.09,16.52,22.32
127,1393742628,0.5107,0.8003,0.2397,-23.78,16.22,22.07
128,1393747627,0.4976,0.7861,0.2510,-22.62,16.04,22.01
129,1393752627,0.4907,0.7749,0.2471,-20.79,15.98,21.65
130,1393757642,0.4907,0.7764,0.2466,-18.17,15.98,21.46
131,1393762630,0.4888,0.7788,0.2539,-16.52,15.67,21.22
132,1393767628,0.4980,0.7754,0.2485,-14.57,15.49,20.91
133,1393772690,0.4985,0.7788,0.2490,-12.74,15.18,20.49
134,1393777629,0.5112,0.7822,0.2461,-11.34,14.82,20.06
135,1393782627,0.5215,0.7847,0.2397,-10.24,14.51,19.82
136,1393787630,0.5581,0.7959,0.2607,-8.54,14.33,19.33
137,1393792629,0.5386,0.8013,0.2627,-7.26,14.33,19.09
138,1393797628,0.4692,0.7852,0.2720,-5.79,14.57,18.60
139,1393802629,0.4727,0.7661,0.2944,-4.63,15.06,18.41
140,1393807628,0.4932,0.7559,0.2559,-3.35,15.49,18.05
141,1393812627,0.5049,0.7642,0.2417,-2.99,15.67,17.26
142,1393817627,0.4927,0.7378,0.2593,-3.11,15.85,16.22
143,1393822755,0.4590,0.6958,0.2866,-2.99,15.55,14.88
144,1393827683,0.4482,0.6787,0.2886,-2.68,15.24,13.66
145,1393832628,0.4536,0.6680,0.2773,-2.26,14.57,12.44
146,1393837631,0.4893,0.6343,0.2900,-1.46,14.09,11.10
147,1393842627,0.5156,0.6509,0.2759,-1.04,13.72,10.18
148,1393847628,0.5249,0.6738,0.2715,-0.30,13.35,8.17
149,1393852629,0.5029,0.6694,0.2764,0.06,12.93,6.16
150,1393857628,0.4761,0.6509,0.2939,-0.24,12.68,4.27
151,1393862629,0.4492,0.6377,0.3076,-1.22,11.95,2.26
152,1393867627,0.4419,0.6372,0.3071,-2.62,11.16,0.49
153,1393872630,0.4692,0.6523,0.3174,-4.39,10.61,-1.16
154,1393877628,0.4995,0.6665,0.3232,-5.67,10.12,-2.87
155,1393882629,0.5161,0.6572,0.3281,-5.98,9.70,-4.21
156,1393887628,0.5728,0.6592,0.3467,-3.54,9.39,-5.06
157,1393892629,0.7256,0.6006,0.4585,3.48,10.73,-5.12
158,1393897630,0.5635,0.7954,0.1606,12.07,12.32,-5.85
159,1393902629,0.4478,0.6895,0.2075,16.77,11.28,-7.38
160,1393907628,0.3916,0.6133,0.3613,19.33,9.27,-8.23
161,1393912629,0.3945,0.7085,0.3779,21.77,6.83,-9.33
162,1393917627,0.3560,0.7041,0.3438,22.80,3.90,-11.10
163,1393922629,0.3896,0.7080,0.3994,22.99,1.71,-12.01
164,1393927627,0.4346,0.7456,0.3564,22.62,0.55,-12.62
165,1393932662,0.4780,0.7407,0.3354,21.34,-0.98,-13.29
166,1393937631,0.4854,0.7202,0.3403,20.06,-2.74,-13.29
167,1393942627,0.4814,0.7056,0.3545,19.51,-4.39,-12.99
168,1393947627,0.4819,0.6934,0.3589,19.82,-5.73,-12.68
169,1393952627,0.4951,0.6831,0.3545,21.40,-7.62,-12.38
170,1393957629,0.5259,0.6719,0.3599,24.94,-9.63,-12.38
171,1393962631,0.5371,0.6675,0.3608,28.29,-11.16,-12.74
172,1393967629,0.5332,0.6646,0.3599,31.95,-12.26,-13.48
173,1393972628,0.5210,0.6528,0.3560,35.43,-13.23,-14.63
174,1393977795,0.5205,0.6416,0.3506,37.87,-14.15,-15.98
175,1393982629,0.5181,0.6382,0.3462,39.63,-15.06,-17.38
176,1393987628,0.5195,0.6299,0.3535,40.91,-16.34,-18.48
177,1393992630,0.5410,0.6274,0.3555,42.50,-17.13,-19.33
178,1393997629,0.5566,0.6284,0.3413,44.70,-17.93,-19.63
179,1394002629,0.5796,0.6313,0.3208,47.38,-18.66,-19.33
180,1394007629,0.5967,0.6240,0.3145,50.43,-18.96,-18.48
181,1394012629,0.6030,0.6089,0.3013,53.29,-19.02,-17.07
182,1394017627,0.6211,0.6011,0.2861,54.94,-18.90,-15.12
183,1394022627,0.6479,0.6182,0.2690,55.24,-18.54,-13.54
184,1394027627,0.6787,0.6250,0.2314,53.60,-18.35,-12.32
185,1394032627,0.6982,0.6318,0.2217,50.79,-18.29,-11.65
186,1394037631,0.7012,0.6357,0.2554,47.32,-18.78,-11.22
187,1394042628,0.6914,0.6465,0.2603,44.15,-19.15,-11.65
188,1394047629,0.7085,0.6489,0.2622,41.34,-19.39,-12.68
189,1394052628,0.7446,0.6421,0.2559,38.60,-19.70,-14.27
190,1394057631,0.7769,0.6431,0.2554,36.22,-19.63,-16.28
191,1394062628,0.7969,0.6470,0.2554,34.51,-19.51,-18.90
192,1394067629,0.8159,0.6548,0.2632,33.78,-19.15,-21.89
193,1394072628,0.8198,0.6479,0.2651,34.09,-19.02,-25.06
194,1394078169,0.8105,0.6431,0.2681,35.06,-18.60,-27.93
195,1394082629,0.8110,0.6694,0.2500,36.22,-17.99,-30.55
196,1394087630,0.8120,0.6968,0.2588,36.83,-17.62,-32.93
197,1394092629,0.8418,0.7114,0.2778,34.88,-17.99,-35.12
198,1394097882,0.8042,0.6777,0.3867,29.15,-18.35,-36.83
199,1394102629,0.7378,0.7212,0.2925,23.23,-18.78,-37.80
200,1394107630,0.7007,0.8125,0.2207,18.35,-19.33,-37.99
201,1394112629,0.7031,0.8755,0.2612,15.12,-19.57,-37.62
202,1394117841,0.7134,0.8950,0.3071,13.29,-19.39,-36.40
203,1394122629,0.7085,0.9092,0.2817,12.68,-19.39,-34.76
204,1394127631,0.6987,0.9277,0.2705,12.68,-19.27,-32.87
205,1394132628,0.7070,0.9375,0.2812,13.23,-19.39,-30.79
206,1394137627,0.7217,0.9517,0.2822,13.72,-19.76,-28.72
207,1394142627,0.7490,0.9502,0.2661,13.84,-19.88,-26.95
208,1394147627,0.7642,0.9268,0.2866,13.96,-20.37,-25.49
209,1394152732,0.7676,0.9229,0.2842,14.09,-20.85,-23.90
210,1394157629,0.7559,0.9419,0.2856,14.39,-21.10,-22.50
211,1394162629,0.7500,0.9536,0.2817,14.63,-21.16,-21.34
212,1394167631,0.7451,0.9668,0.2744,14.21,-20.73,-20.00
213,1394172628,0.7349,0.9800,0.2646,12.32,-19.94,-18.54
214,1394177629,0.7319,0.9966,0.2622,8.35,-18.84,-17.01
215,1394182628,0.7539,0.9922,0.3218,3.41,-17.87,-15.30
216,1394187627,0.7749,1.0098,0.3208,-1.16,-16.95,-13.72
217,1394192628,0.8066,1.0381,0.2729,-5.98,-16.46,-12.38
218,1394197632,0.8154,1.0435,0.2891,-11.22,-15.73,-10.85
219,1394202629,0.8003,1.0332,0.3154,-16.52,-14.82,-9.21
220,1394207630,0.7861,1.0371,0.3130,-21.04,-13.96,-7.20
221,1394212629,0.7905,1.0479,0.3311,-23.84,-13.11,-5.24
222,1394217631,0.7773,1.0469,0.3657,-24.33,-12.20,-2.87
223,1394222629,0.7651,1.0439,0.3848,-22.32,-11.28,-0.55
224,1394227629,0.7490,1.0303,0.4009,-17.44,-11.04,1.89
225,1394232629,0.7598,1.0298,0.4668,-10.67,-10.43,4.45
226,1394237627,0.7593,1.0137,0.4272,-2.80,-10.79,7.01
227,1394242627,0.7617,1.0098,0.4062,6.22,-11.40,9.70
228,1394247627,0.7676,1.0132,0.4121,16.04,-12.26,12.50
229,1394252627,0.7705,1.0137,0.3984,26.59,-13.35,15.24
230,1394257631,0.7573,1.0117,0.3750,37.44,-14.39,18.17
231,1394262628,0.7339,1.0317,0.3765,48.17,-15.55,21.16
232,1394267629,0.7344,1.0645,0.3794,58.17,-16.34,24.02
233,1394272628,0.6689,1.1948,0.3262,66.77,-17.13,26.83
234,1394277629,0.7192,1.2056,0.2915,74.45,-17.44,30.18
235,1394282628,0.7559,1.1665,0.2930,78.35,-17.56,33.90
236,1394287627,0.7681,1.1772,0.2515,77.62,-17.68,37.26
237,1394292627,0.8066,1.1958,0.2158,72.99,-18.23,40.24
238,1394297765,0.7671,1.2251,0.2344,65.37,-19.02,43.41
239,1394302628,0.7466,1.2129,0.2764,54.88,-19.51,46.71
240,1394307629,0.7612,1.1987,0.2017,45.12,-20.30,49.82
241,1394312628,0.7778,1.1953,0.1685,38.35,-20.79,52.99
242,1394317629,0.6299,1.2803,0.2275,35.30,-20.91,56.46
243,1394322628,0.5659,1.2197,0.1831,34.76,-20.73,60.30
244,1394327627,0.6152,1.1963,0.2212,35.98,-20.73,64.70
245,1394332627,0.6211,1.2637,0.2100,36.59,-20.73,68.96
246,1394337627,0.6177,1.3257,0.1650,39.27,-20.79,73.41
247,1394342631,0.6187,1.3340,0.1533,42.74,-20.79,78.29
248,1394347629,0.6240,1.3042,0.1709,45.12,-20.55,83.41
249,1394352628,0.6191,1.3018,0.1460,45.91,-20.30,88.11
250,1394357627,0.6089,1.3198,0.1055,45.24,-20.12,93.11
251,1394362627,0.6104,1.3398,0.0957,43.66,-19.94,97.99
252,1394367627,0.6294,1.3408,0.0747,41.46,-19.57,102.87
253,1394372631,0.6582,1.3223,0.0620,38.96,-19.33,107.56
254,1394377629,0.6704,1.2930,0.0527,36.34,-19.09,112.13
255,1394382628,0.6665,1.2612,0.0508,33.96,-18.84,116.40
256,1394387627,0.6714,1.2324,0.0430,31.77,-18.60,120.55
257,1394392629,0.6895,1.1943,0.0410,29.76,-18.35,124.39
258,1394397800,0.6948,1.1538,0.0381,27.56,-18.41,127.87
259,1394402629,0.6904,1.1069,0.0288,25.24,-18.35,131.10
260,1394407629,0.6880,1.0571,0.0200,22.93,-18.60,134.02
261,1394412628,0.6890,1.0220,0.0127,20.67,-18.78,136.59
262,1394417631,0.6885,0.9893,0.0254,18.66,-18.96,138.84
263,1394422628,0.6831,0.9458,0.0229,16.59,-18.78,140.85
264,1394427629,0.6763,0.9141,0.0171,14.45,-18.96,142.50
265,1394432628,0.6821,0.8696,0.0083,12.07,-18.96,144.02
266,1394437627,0.6831,0.8345,0.0039,9.57,-19.27,145.24
267,1394442631,0.6665,0.7988,0.0010,7.32,-19.33,146.46
268,1394447628,0.6382,0.7690,-0.0088,5.91,-19.45,147.38
269,1394452627,0.6138,0.7212,-0.0220,5.55,-19.45,148.29
270,1394457627,0.6143,0.6865,-0.0356,7.32,-19.70,149.39
271,1394462630,0.6543,0.6587,-0.0405,11.65,-19.82,150.18
272,1394467628,0.6514,0.6299,-0.0371,18.05,-19.51,150.85
273,1394472630,0.6304,0.5977,-0.0376,25.55,-19.02,151.22
274,1394477629,0.6172,0.5576,-0.0522,33.05,-18.35,151.52
275,1394482629,0.6299,0.5146,-0.0757,40.06,-17.87,151.52
276,1394487673,0.6489,0.4912,-0.0645,46.46,-17.13,151.28
277,1394492630,0.6465,0.4395,-0.0610,51.04,-16.04,150.67
278,1394497627,0.6343,0.3955,-0.0620,52.87,-14.76,149.82
279,1394502630,0.6191,0.3438,-0.0610,51.46,-13.60,148.72
280,1394507629,0.6216,0.3032,-0.0703,47.13,-12.32,147.26
281,1394512628,0.6304,0.2744,-0.0620,40.49,-11.04,145.37
282,1394517627,0.6401,0.2402,-0.0503,32.07,-9.76,143.11
283,1394522627,0.6255,0.2227,-0.0723,22.62,-8.54,140.49
284,1394527628,0.5879,0.1509,-0.0713,13.05,-7.38,137.87
285,1394532627,0.5503,0.1313,-0.0781,5.79,-6.22,135.43
286,1394537631,0.5815,0.1016,-0.0742,1.52,-5.30,132.56
287,1394542628,0.6069,0.0581,-0.0571,0.30,-3.96,129.57
288,1394547627,0.6079,0.0127,-0.0537,1.34,-2.74,126.04
289,1394552631,0.6035,-0.0400,-0.0576,4.21,-1.28,122.62
290,1394557628,0.6069,-0.0962,-0.0581,8.23,0.24,118.84
291,1394562686,0.6074,-0.1396,-0.0479,12.99,1.83,114.76
292,1394567828,0.6177,-0.1865,-0.0415,17.62,3.60,110.24
293,1394572629,0.6172,-0.2266,-0.0352,21.34,5.43,105.49
294,1394577630,0.6201,-0.2651,-0.0298,23.29,7.20,100.49
295,1394582629,0.6152,-0.3027,-0.0410,23.11,9.02,95.12
296,1394587627,0.6099,-0.3276,-0.0376,21.22,10.43,89.88
297,1394592627,0.6230,-0.3491,-0.0322,18.60,11.71,83.90
298,1394597627,0.6479,-0.3535,-0.0205,15.79,12.93,77.62
299,1394602627,0.6792,-0.3364,0.0010,13.05,14.27,71.04
300,1394607627,0.7393,-0.3340,0.0156,10.30,15.61,63.90
301,1394612631,0.7764,-0.3384,0.0205,7.26,16.95,56.77
302,1394617629,0.7861,-0.3364,0.0195,3.84,18.11,49.76
303,1394622628,0.8066,-0.3291,0.0151,0.73,19.09,42.99
304,1394627630,0.8203,-0.3213,0.0269,-1.16,19.94,36.34
305,1394632628,0.8438,-0.2891,0.0391,-1.04,20.67,30.00
306,1394637629,0.8716,-0.2681,0.0400,0.98,21.71,23.84
307,1394642628,0.8589,-0.2734,0.0337,4.76,22.32,17.93
308,1394647627,0.8262,-0.2861,0.0322,10.06,22.68,12.68
309,1394652630,0.8105,-0.2896,0.0342,16.89,23.11,7.87
310,1394657628,0.8081,-0.2773,0.0376,25.30,23.29,3.11
311,1394662631,0.8311,-0.2422,0.0347,34.45,23.35,-2.07
312,1394667627,0.8945,-0.1890,0.0532,43.29,23.29,-7.50
313,1394672627,0.9316,-0.1587,0.0620,50.30,23.48,-13.11
314,1394677627,0.9058,-0.1323,0.0596,53.23,23.35,-18.23
315,1394682627,0.8853,-0.0977,0.0474,51.34,22.93,-22.62
316,1394687627,0.9072,-0.0190,0.0405,45.61,22.38,-26.59
317,1394692627,0.9521,0.0479,0.0425,37.44,21.83,-30.12
318,1394697627,0.9692,0.1040,0.0479,27.93,21.10,-32.99
319,1394702628,0.9473,0.1567,0.0503,17.74,20.37,-35.06
320,1394707627,0.9380,0.2070,0.0513,8.35,19.76,-36.16
321,1394712631,0.9336,0.2529,0.0513,1.46,19.21,-36.52
322,1394717629,0.9385,0.2832,0.0610,-1.34,18.60,-36.28
323,1394722635,0.9341,0.3105,0.0737,0.24,18.17,-35.55
324,1394727629,0.9150,0.3203,0.0718,5.85,17.80,-34.45
325,1394732812,0.9009,0.3301,0.0752,14.94,17.62,-32.99
326,1394737628,0.9053,0.3457,0.0776,26.52,17.20,-31.28
327,1394742629,0.9170,0.3506,0.0845,39.27,16.83,-29.57
328,1394747628,0.9019,0.3701,0.1001,51.83,16.52,-27.87
329,1394752629,0.9048,0.3862,0.1147,61.52,16.34,-25.85
330,1394757627,0.9224,0.4097,0.1099,66.46,16.16,-23.84
331,1394762627,0.9331,0.4224,0.1079,65.73,16.04,-21.71
332,1394767627,0.9341,0.4341,0.1099,59.76,15.55,-19.39
333,1394772627,0.9209,0.4468,0.1187,50.12,15.24,-17.07
334,1394777694,0.9326,0.4644,0.1328,38.54,15.12,-14.51
335,1394782627,0.9414,0.4756,0.1436,26.65,15.00,-12.13
336,1394787629,0.9316,0.4839,0.1538,15.49,15.18,-9.63
337,1394792629,0.9233,0.4800,0.1504,5.79,15.37,-7.01
338,1394797629,0.9058,0.4834,0.1450,-1.46,15.67,-4.45
339,1394802628,0.9282,0.5059,0.1533,-5.30,16.04,-1.83
340,1394807629,0.9375,0.5112,0.1606,-5.91,16.65,0.73
341,1394812629,0.9092,0.5068,0.1538,-4.09,17.20,3.41
342,1394817629,0.8936,0.5093,0.1470,-0.73,17.62,6.28
343,1394822628,0.9111,0.5098,0.1553,3.90,18.05,9.15
344,1394827629,0.9253,0.5034,0.1626,9.45,18.29,11.95
345,1394832628,0.9160,0.4858,0.1548,14.88,18.66,14.63
346,1394837629,0.9209,0.4688,0.1543,19.39,18.48,17.01
347,1394842628,0.9404,0.4575,0.1587,23.41,18.11,19.45
348,1394847627,0.9448,0.4282,0.1807,27.07,17.93,21.52
349,1394852627,0.9346,0.3955,0.1904,29.51,17.68,23.41
350,1394857627,0.9370,0.3657,0.1914,30.49,17.13,25.00
351,1394862627,0.9482,0.3281,0.2031,29.94,16.46,26.16
352,1394867629,0.9395,0.2827,0.2061,27.80,15.55,27.01
353,1394872629,0.9321,0.2329,0.2261,24.70,15.00,27.13
354,1394877629,0.9351,0.1899,0.2319,21.28,14.33,26.77
355,1394882629,0.9399,0.1519,0.2344,17.07,13.66,25.73
356,1394887629,0.9443,0.1074,0.2344,12.50,12.99,24.21
357,1394892629,0.9194,0.0596,0.2393,7.56,12.32,22.13
358,1394897627,0.8789,0.0166,0.2437,2.80,12.01,19.76
359,1394902629,0.8564,-0.0386,0.2422,-1.89,11.71,17.01
360,1394907627,0.8496,-0.0933,0.2446,-7.01,11.65,13.84
361,1394912627,0.8442,-0.1489,0.2329,-12.80,11.34,9.88
362,1394917747,0.8267,-0.2051,0.2310,-18.96,11.16,5.55
363,1394922629,0.7959,-0.2671,0.2295,-24.82,10.91,0.79
364,1394927629,0.7671,-0.3281,0.2393,-29.76,10.73,-4.51
365,1394932627,0.7461,-0.3872,0.2314,-33.78,10.55,-10.49
366,1394937794,0.7417,-0.4526,0.2275,-36.77,10.43,-17.20
367,1394942629,0.7363,-0.5151,0.2080,-38.78,10.24,-24.57
368,1394947778,0.7178,-0.5757,0.2002,-39.39,10.00,-32.56
369,1394952628,0.6968,-0.6382,0.1992,-37.87,9.57,-41.34
370,1394957629,0.6904,-0.6836,0.1870,-34.09,9.39,-50.91
371,1394962757,0.6748,-0.7251,0.1675,-28.60,9.15,-61.40
372,1394967630,0.6973,-0.7754,0.1704,-21.46,8.90,-72.32
373,1394972629,0.6943,-0.7915,0.1509,-12.87,9.09,-83.96
374,1394978179,0.7168,-0.7944,0.1401,-2.87,9.39,-96.16
375,1394982640,0.7051,-0.7959,0.1504,8.84,10.00,-108.90
376,1394987629,0.6846,-0.7935,0.1528,21.95,10.91,-121.95
377,1394992627,0.6963,-0.7437,0.1455,34.88,12.13,-135.30
378,1394997627,0.7305,-0.6719,0.1562,45.85,13.05,-149.21
379,1395002627,0.7300,-0.6333,0.1479,53.17,14.09,-163.05
380,1395007627,0.6968,-0.5991,0.1294,56.34,14.57,-176.34
381,1395012627,0.6724,-0.5273,0.1294,55.00,14.94,-188.78
382,1395018454,0.6641,-0.4302,0.1313,48.72,14.94,-202.87
383,1395022629,0.6484,-0.3525,0.1265,42.26,15.12,-211.71
384,1395027627,0.6304,-0.2446,0.1206,32.56,15.37,-221.83
385,1395032627,0.6138,-0.1133,0.1167,21.71,15.55,-230.98
386,1395037627,0.6265,0.0171,0.1060,10.61,16.04,-238.72
387,1395042628,1.2778,6.2461,0.5376,0.55,15.55,-237.68
388,1395048050,0.6602,12.3110,0.8779,-85.98,0.67,-79.57
389,1395052629,1.3481,3.5571,0.3779,-100.24,-2.50,2.07
390,1395057629,1.4233,0.8066,0.0908,-60.18,5.67,20.91
391,1395062627,1.0977,0.7124,-0.6069,-18.54,8.66,24.09
392,1395067627,1.1021,0.5728,-0.1592,10.91,10.37,23.23
393,1395072629,0.9985,0.3672,0.2627,17.93,13.05,20.67
394,1395077661,1.0332,0.3652,0.1040,10.61,12.68,16.89
395,1395082627,1.0503,0.3638,0.1304,0.24,11.65,13.23
396,1395087629,1.0249,0.4038,0.3228,-12.07,11.77,10.49
397,1395092631,1.0151,0.5190,0.2202,-23.05,11.77,8.60
398,1395097629,1.0513,0.6274,0.1313,-30.67,11.10,7.38
399,1395102628,1.0415,0.6860,0.2280,-35.24,10.98,7.20
400,1395107628,0.9741,0.7241,0.2383,-37.20,11.16,8.54
401,1395112627,0.9219,0.7935,0.1724,-36.10,10.85,11.16
402,1395117631,0.9180,0.8901,0.2075,-32.32,10.43,14.82
403,1395122628,0.9067,0.9883,0.2349,-26.89,10.12,19.33
404,1395127628,0.8579,1.0566,0.2075,-20.85,9.70,24.88
405,1395132629,0.7856,1.1128,0.1919,-15.12,8.78,31.46
406,1395137629,0.7349,1.1475,0.2090,-10.18,7.62,38.78
407,1395142628,0.7114,1.1621,0.2007,-5.67,6.10,46.71
408,1395147627,0.6978,1.1758,0.1938,-1.46,4.02,54.94
409,1395152627,0.6826,1.1694,0.2036,2.07,1.77,62.93
410,1395157627,0.6772,1.1138,0.2036,4.88,-0.55,70.79
411,1395162627,0.6885,1.0498,0.1914,6.89,-3.35,78.17
412,1395167629,0.7017,0.9673,0.2041,8.54,-6.22,85.30
413,1395172629,0.7124,0.8823,0.2197,10.24,-9.02,90.85
414,1395177628,0.7100,0.7729,0.2183,11.59,-11.71,95.79
415,1395182630,0.6992,0.6577,0.2163,12.50,-14.27,99.63
416,1395187629,0.6924,0.5210,0.2173,13.41,-17.01,102.56
417,1395192628,0.6953,0.3848,0.2222,14.94,-19.45,104.15
418,1395197632,0.7051,0.2441,0.2271,17.38,-21.52,104.57
419,1395202631,0.7148,0.0952,0.2319,20.67,-23.60,103.60
420,1395207629,0.7168,-0.0400,0.2256,24.57,-25.30,101.22
421,1395212628,0.7114,-0.1816,0.2202,28.48,-26.83,97.32
422,1395217631,0.6826,-0.3325,0.2197,31.89,-27.80,91.71
423,1395222628,0.6855,-0.4937,0.2114,34.09,-28.41,84.63
424,1395227629,0.7051,-0.6406,0.1924,34.94,-28.90,76.10
425,1395232628,0.7222,-0.7993,0.1768,34.76,-29.27,65.55
426,1395237629,0.7349,-0.9434,0.1782,33.90,-29.57,53.23
427,1395242628,0.7563,-1.0820,0.1782,33.35,-29.63,39.02
428,1395247627,0.7827,-1.2046,0.1655,32.80,-29.88,22.99
429,1395252629,0.8027,-1.3086,0.1455,31.89,-29.57,5.12
430,1395257628,0.8149,-1.4292,0.1289,31.34,-29.15,-18.35
431,1395262630,0.8130,-1.5010,0.1221,31.77,-28.96,-34.88
432,1395267627,0.7876,-1.5723,0.1235,34.15,-28.23,-56.16
433,1395272627,0.7378,-1.6147,0.1406,38.96,-27.20,-78.11
434,1395277629,0.6860,-1.6284,0.1445,45.55,-25.73,-100.24
435,1395282628,0.6357,-1.6226,0.1450,52.32,-24.09,-122.44
436,1395287629,0.5806,-1.5996,0.1318,57.93,-22.62,-144.33
437,1395292723,0.5132,-1.5352,0.1309,61.83,-21.10,-165.79
438,1395297629,0.4565,-1.4395,0.1265,63.23,-20.00,-186.65
439,1395302628,0.4160,-1.3125,0.1196,61.65,-18.84,-206.95
440,1395307664,0.3677,-1.1885,0.1089,56.40,-17.99,-226.34
441,1395312628,0.3174,-1.0386,0.0874,47.62,-17.38,-244.27
442,1395317629,0.2583,-0.8711,0.0747,36.71,-17.01,-260.61
443,1395322628,1.6201,11.4868,0.4727,32.38,-15.30,-245.91
444,1395327631,0.6548,8.6729,0.3823,-43.23,-33.11,-66.59
445,1395332628,1.7075,3.2505,0.5859,-43.84,-34.57,-13.05
446,1395337630,0.9634,1.9585,0.0991,10.67,-22.01,1.34
447,1395342628,0.9209,0.6128,-0.9214,56.59,-17.87,6.52
448,1395347628,1.0508,-0.0850,-0.3481,67.38,-17.74,7.80
449,1395352629,0.9404,0.0903,0.0566,45.85,-15.79,3.96
450,1395357629,0.9253,0.6094,-0.6099,24.39,-15.43,-0.73
451,1395362627,0.8916,0.7988,-0.5469,16.83,-14.15,-3.35
452,1395367627,0.8809,0.4131,-0.0107,7.20,-9.82,-6.04
453,1395372627,0.9727,0.0493,-0.1685,-14.51,-8.78,-10.67
454,1395377629,0.9604,0.0317,-0.1475,-39.82,-11.52,-16.95
455,1395382629,0.9614,0.1680,0.2495,-57.20,-11.77,-23.96
456,1395387630,0.9551,0.2900,0.1396,-64.51,-11.46,-30.43
457,1395392629,0.8994,0.3770,-0.0420,-62.93,-12.80,-35.73
458,1395397629,0.8325,0.4248,0.1367,-54.51,-13.60,-39.15
459,1395402629,0.7847,0.4683,0.1523,-41.22,-13.48,-40.85
460,1395407629,0.7407,0.5337,0.0288,-25.37,-14.76,-41.34
461,1395412627,0.7036,0.5884,0.1191,-9.63,-16.28,-41.22
462,1395417724,0.6567,0.5933,0.2476,4.39,-17.26,-41.04
463,1395422629,0.5977,0.5718,0.2271,15.37,-18.29,-40.61
464,1395427629,0.5439,0.5581,0.2451,22.44,-19.63,-40.12
465,1395432628,0.5073,0.5596,0.3252,24.57,-20.85,-39.33
466,1395437628,0.4839,0.5786,0.2866,21.40,-22.20,-38.29
467,1395442627,0.4546,0.6045,0.2334,13.23,-24.33,-37.07
468,1395447627,0.4160,0.6348,0.2510,1.16,-26.34,-35.55
469,1395452627,0.3667,0.6333,0.2495,-13.72,-28.23,-34.21
470,1395457629,0.3408,0.6201,0.1992,-29.76,-30.55,-32.68
471,1395462628,0.3447,0.6133,0.2109,-45.43,-32.68,-31.10
472,1395468036,0.3530,0.6021,0.2251,-61.59,-34.94,-29.33
473,1395472629,0.3560,0.5903,0.2202,-70.18,-36.22,-28.48
474,1395477631,0.3623,0.5679,0.2295,-78.35,-37.56,-27.62
475,1395482629,0.3735,0.5386,0.2373,-83.66,-38.72,-27.20
476,1395487629,0.3921,0.5044,0.2256,-86.59,-39.63,-27.20
477,1395492631,0.4150,0.4692,0.2144,-87.44,-40.43,-27.68
478,1395497629,0.4282,0.4409,0.2139,-86.77,-41.04,-28.60
479,1395502628,0.4507,0.3911,0.2046,-84.94,-41.65,-30.06
480,1395507629,0.4658,0.3550,0.1943,-82.26,-41.83,-31.77
481,1395512628,0.4766,0.3145,0.1860,-78.96,-41.83,-33.84
482,1395517627,0.4844,0.2837,0.1875,-75.43,-41.40,-36.10
483,1395522629,0.5059,0.2676,0.1758,-72.13,-40.61,-38.66
484,1395527629,0.5244,0.2603,0.1709,-69.45,-39.82,-41.71
485,1395532629,0.5415,0.2632,0.1641,-67.56,-38.66,-45.06
486,1395537627,0.5454,0.2578,0.1523,-67.07,-37.26,-48.48
487,1395542629,0.5337,0.2661,0.1304,-67.80,-35.98,-52.20
488,1395547628,0.5054,0.2573,0.1064,-69.39,-34.88,-56.04
489,1395552763,0.4922,0.2681,0.1069,-71.40,-33.60,-59.94
490,1395557627,0.4824,0.2856,0.1006,-73.72,-32.20,-63.96
491,1395562627,0.4888,0.2983,0.0854,-75.79,-30.49,-68.48
492,1395567627,0.5200,0.2920,0.0752,-77.93,-28.60,-73.11
493,1395572627,0.5713,0.2783,0.0635,-79.70,-26.46,-77.56
494,1395577627,0.6138,0.2783,0.0498,-80.98,-24.27,-81.89
495,1395582628,0.6411,0.2905,0.0361,-81.71,-21.77,-86.34
496,1395587629,0.6641,0.3135,0.0435,-82.13,-19.09,-90.98
497,1395592629,0.6929,0.3325,0.0459,-82.13,-16.34,-96.04
498,1395597629,0.7417,0.3472,0.0327,-82.38,-13.23,-101.10
499,1395602628,0.7847,0.3564,0.0190,-82.62,-10.43,-106.28
500,1395607906,0.8169,0.3755,0.0137,-83.11,-7.68,-111.22
501,1395612629,0.8271,0.3965,-0.0083,-83.60,-5.00,-116.04
502,1395617629,0.8120,0.4106,-0.0205,-84.02,-2.74,-120.79
503,1395622628,0.7798,0.4209,-0.0190,-84.02,-0.61,-125.06
504,1395627629,0.7549,0.4189,-0.0220,-83.72,1.59,-128.96
505,1395632628,0.7388,0.4277,-0.0249,-83.11,3.84,-132.32
506,1395637629,0.7271,0.4478,-0.0410,-82.50,5.91,-135.30
507,1395642628,0.7163,0.5059,-0.0542,-81.77,8.11,-138.35
508,1395647627,0.7515,0.5107,-0.0615,-81.04,10.06,-141.59
509,1395652628,0.7881,0.5742,-0.1001,-80.67,11.95,-144.45
510,1395657629,0.8042,0.6343,-0.0825,-80.12,14.09,-147.50
511,1395662627,0.7788,0.6382,-0.0791,-78.17,16.28,-150.12
512,1395668065,0.7715,0.6748,-0.0854,-73.17,19.09,-152.26
513,1395672629,0.7695,0.7188,-0.0908,-68.60,20.85,-152.99
514,1395677629,0.7476,0.7720,-0.0908,-61.34,22.93,-153.35
515,1395682629,0.7075,0.8081,-0.0859,-52.20,24.94,-153.05
516,1395687629,0.6699,0.8506,-0.0669,-41.28,26.83,-151.77
517,1395692628,0.6313,0.8950,-0.0503,-29.51,28.72,-149.57
518,1395697631,0.5942,0.9312,-0.0391,-17.44,30.55,-146.77
519,1395702628,0.5684,0.9673,-0.0317,-5.98,32.01,-143.35
520,1395707629,0.5518,1.0078,-0.0239,3.78,33.78,-139.57
521,1395712628,0.5591,1.0420,-0.0127,11.34,35.49,-135.49
522,1395717630,0.5742,1.0669,-0.0112,16.16,37.32,-131.16
523,1395722628,0.5918,1.0996,-0.0142,17.68,38.90,-126.77
524,1395727627,0.5874,1.1509,-0.0195,15.98,40.55,-122.44
525,1395732627,0.5869,1.1938,-0.0181,11.83,41.83,-118.29
526,1395737629,0.5908,1.2163,-0.0166,6.40,43.23,-113.84
527,1395742628,0.6294,1.2397,0.0215,0.79,44.82,-108.78
528,1395747629,0.6504,1.3037,0.0044,-4.51,46.46,-103.60
529,1395752629,0.6597,1.3647,0.0234,-8.72,48.17,-98.17
530,1395757628,0.6646,1.3906,0.0625,-11.65,50.12,-92.44
531,1395762714,0.6499,1.4219,0.0938,-13.23,52.01,-86.46
532,1395767629,0.5640,1.4956,0.1992,-13.96,53.17,-80.12
533,1395772630,0.4844,1.4951,0.1055,-14.70,55.30,-73.78
534,1395777629,0.5620,1.5420,0.3540,-16.40,55.30,-66.71
535,1395782629,0.5474,1.5859,0.3818,-18.11,56.52,-59.63
536,1395787629,0.5474,1.6367,0.3130,-20.79,56.89,-52.13
537,1395792629,0.5732,1.6792,0.4194,-24.63,56.52,-44.45
538,1395797630,0.6460,1.6763,0.5771,-30.12,55.67,-36.52
539,1395802629,0.6211,1.5332,0.8950,-38.90,53.78,-29.02
540,1395807629,0.8599,1.5908,0.9712,-52.56,52.50,-21.34
541,1395812629,0.8564,1.6836,0.9648,-67.99,51.16,-15.67
542,1395817629,0.8975,1.5356,0.9585,-85.55,41.10,-9.82
543,1395822627,0.9399,1.4414,1.1821,-100.91,46.34,-2.99
544,1395827627,0.9316,1.4165,1.0298,-113.17,45.30,2.32
545,1395832627,0.9663,1.4849,0.9126,-121.46,42.62,6.59
546,1395837627,0.9492,1.5244,0.9473,-123.90,40.91,10.79
547,1395842627,0.9482,1.5151,0.8950,-120.61,38.90,15.85
548,1395847627,0.8999,1.5811,0.7622,-113.05,35.37,21.04
549,1395852629,0.8857,1.5620,0.6987,-101.71,32.32,25.91
550,1395857630,0.8765,1.5532,0.6328,-83.54,28.96,32.32
551,1395862629,0.8955,1.5391,0.5962,-69.76,26.28,36.65
552,1395867628,0.8667,1.5132,0.5894,-51.71,23.23,41.89
553,1395872629,0.8057,1.4629,0.6387,-35.00,20.37,46.95
554,1395877629,0.7539,1.3979,0.7056,-21.28,17.74,51.46
555,1395882629,0.7070,1.3228,0.7686,-11.65,15.55,55.61
556,1395887627,0.6792,1.2510,0.8047,-6.34,13.72,59.33
557,1395892629,0.6616,1.1870,0.8135,-4.27,11.59,62.80
558,1395897629,0.6616,1.1377,0.7959,-3.60,9.76,66.10
559,1395902627,0.6343,1.1123,0.7700,-4.02,8.11,69.21
560,1395907628,0.6235,1.1040,0.6987,-4.70,7.32,72.07
561,1395912629,0.6108,1.0957,0.6133,-4.94,6.77,74.76
562,1395917629,0.6157,1.1382,0.5137,-3.41,6.52,77.56
563,1395922627,0.6030,1.1294,0.4531,-0.12,7.01,80.24
564,1395927627,0.4536,1.2505,0.2808,6.28,6.95,82.20
565,1395932627,0.4727,1.0015,0.4854,14.51,8.23,85.00
566,1395937627,0.6001,0.9937,0.3301,22.13,11.16,89.39
567,1395942629,0.6606,1.0264,0.2217,29.15,12.87,92.44
568,1395947741,0.6816,1.0942,0.2310,36.28,14.27,94.63
569,1395952629,0.6504,1.0205,0.3232,43.54,15.73,96.59
570,1395957629,0.6265,1.0063,0.3398,50.37,17.80,98.54
571,1395962629,0.7168,0.8848,0.4219,57.20,20.12,100.00
572,1395968100,0.6108,0.9146,0.3750,63.90,23.05,100.67
573,1395972629,0.5225,0.8037,0.3442,66.89,24.57,100.37
574,1395977629,0.4648,0.7490,0.3501,70.06,25.61,99.27
575,1395982629,0.4287,0.6558,0.4434,72.93,26.65,97.50
576,1395987627,0.4414,0.6309,0.5127,74.88,28.17,96.46
577,1395992627,0.4712,0.6694,0.5127,75.37,30.18,95.12
578,1395997627,0.4927,0.6953,0.5083,74.02,32.01,92.99
579,1396002775,0.4585,0.7275,0.4888,69.57,32.93,89.39
580,1396007630,0.4380,0.7246,0.4907,64.63,33.11,86.52
581,1396012627,0.4399,0.7417,0.5063,56.71,32.50,81.34
582,1396017628,0.4561,0.7168,0.5698,47.13,32.20,75.98
583,1396022629,0.4658,0.6958,0.5815,35.98,31.65,70.61
584,1396027700,0.4536,0.7041,0.5664,23.54,30.67,65.43
585,1396032627,0.4731,0.7349,0.6807,8.78,29.39,60.73
586,1396037709,0.4790,0.7490,0.6323,-8.66,27.50,56.40
587,1396042631,0.4917,0.7524,0.5522,-26.04,24.27,52.80
588,1396047628,0.4917,0.7515,0.4985,-41.34,21.52,50.00
589,1396052629,0.4282,0.7598,0.4116,-53.41,18.84,47.74
590,1396057741,0.3984,0.7515,0.3398,-62.26,16.22,45.85
591,1396062630,0.3398,0.8022,0.2822,-67.44,13.35,43.78
592,1396067628,0.2046,0.7803,0.2041,-66.71,10.18,41.28
593,1396072629,0.2476,0.6357,0.2627,-61.04,7.32,39.57
594,1396077629,0.3105,0.5991,0.3184,-52.38,5.67,38.96
595,1396082627,0.3115,0.6382,0.3228,-42.13,4.21,37.93
596,1396087627,0.2656,0.7656,0.1562,-32.07,1.34,35.49
597,1396092627,0.1748,0.7080,0.5068,-21.77,0.18,32.56
598,1396097627,0.1069,0.6880,0.5278,-10.00,1.59,30.30
599,1396102627,0.0684,0.6704,0.4072,1.77,2.80,28.29
600,1396107627,0.0586,0.6167,0.3525,12.68,3.17,26.77
601,1396112629,0.0962,0.6245,0.3052,20.73,2.80,25.24
602,1396117627,0.1465,0.6504,0.3618,24.51,1.65,23.23
603,1396122683,0.1846,0.6592,0.3984,24.70,0.67,20.61
604,1396127681,0.2065,0.6548,0.4497,22.50,-0.43,17.87
605,1396132627,0.2139,0.6646,0.4932,18.78,-0.85,15.49
606,1396137627,0.1797,0.6802,0.5347,14.76,-0.67,13.48
607,1396142627,0.1079,0.6870,0.5103,11.95,0.67,11.83
608,1396147631,0.1064,0.7061,0.4180,11.22,3.11,10.67
609,1396152630,0.1294,0.7202,0.3921,12.26,5.49,10.24
610,1396157629,0.1704,0.7539,0.2837,14.76,8.78,9.94
611,1396162930,0.1641,0.8018,0.2090,17.74,12.62,9.63
612,1396167629,0.1479,0.7954,0.2051,18.35,15.06,9.33
613,1396172627,0.1313,0.7559,0.1816,16.46,17.44,9.21
614,1396177627,0.1304,0.7388,0.1484,11.34,18.78,8.90
615,1396182627,0.0703,0.8135,0.1851,3.11,19.82,7.74
616,1396187628,-0.0078,0.7739,0.2139,-6.59,20.24,5.24
617,1396192628,0.0195,0.6284,0.2979,-17.87,20.18,3.17
618,1396197632,0.0430,0.5742,0.2852,-29.82,19.63,1.59
619,1396202628,0.0591,0.5342,0.3154,-40.30,18.41,0.18
620,1396207627,0.1582,0.5845,0.3306,-48.84,16.89,-1.71
621,1396212630,0.2080,0.4741,0.4209,-56.59,15.49,-3.72
622,1396217629,0.3462,0.5576,0.2939,-63.17,13.05,-5.85
623,1396222627,0.3130,0.3682,0.4453,-69.45,10.67,-8.05
624,1396227627,0.2261,0.3691,0.3823,-72.13,8.96,-8.78
625,1396232627,0.0977,0.4673,0.4429,-69.15,8.48,-8.84
626,1396237630,0.1284,0.5615,0.4502,-64.94,8.11,-8.78
627,1396242633,0.2104,0.6440,0.5391,-57.68,10.43,-8.90
628,1396247627,0.2881,0.6582,0.4712,-49.57,13.48,-9.33
629,1396252627,0.3232,0.6553,0.3618,-42.50,16.59,-9.70
630,1396257630,0.2695,0.6328,0.3486,-37.38,19.57,-10.18
631,1396262629,0.2310,0.6118,0.3535,-34.57,22.38,-10.91
632,1396267628,0.2124,0.5923,0.3242,-33.72,24.70,-11.89
633,1396272629,0.1753,0.5776,0.3218,-34.45,26.34,-12.87
634,1396277630,0.1084,0.5801,0.3613,-36.46,27.62,-14.15
635,1396282974,0.0435,0.6104,0.3750,-40.37,28.17,-16.22
636,1396287629,0.0249,0.7124,0.3452,-43.41,27.74,-18.72
637,1396292627,0.0356,0.7437,0.3735,-47.68,25.73,-24.09
638,1396297630,0.0776,0.5220,0.4468,-51.28,23.23,-29.94
639,1396302629,0.1978,0.4395,0.5229,-52.74,20.85,-34.63
640,1396307627,0.2417,0.5020,0.5161,-51.52,19.15,-39.63
641,1396312627,0.2285,0.5249,0.5063,-47.56,17.38,-45.55
642,1396317628,0.2690,0.5269,0.4995,-40.55,16.16,-51.71
643,1396322629,0.3027,0.5474,0.4590,-29.88,15.91,-57.38
644,1396327630,0.2778,0.5806,0.4326,-15.73,15.73,-62.68
645,1396332629,0.2324,0.5996,0.4429,1.28,16.40,-67.74
646,1396337628,0.1880,0.5918,0.3906,20.00,17.07,-72.56
647,1396342629,0.1372,0.5645,0.3579,39.21,17.07,-76.89
648,1396347627,0.0762,0.5293,0.3789,57.68,16.28,-80.61
649,1396352627,0.0425,0.5195,0.4268,74.27,15.85,-84.02
650,1396357627,0.0298,0.5122,0.4521,88.29,15.85,-87.01
651,1396362628,0.0024,0.5098,0.4360,99.02,16.22,-89.76
652,1396367629,-0.0425,0.5293,0.4141,105.73,16.52,-92.07
653,1396372628,-0.0620,0.5557,0.3633,108.60,16.65,-93.96
654,1396377629,-0.0913,0.6016,0.3174,107.26,16.46,-95.37
655,1396382793,-0.1270,0.6450,0.3140,101.10,15.67,-96.77
656,1396387629,-0.0605,0.6914,0.3525,95.49,15.43,-97.26
657,1396392627,-0.0635,0.7417,0.2207,86.10,14.15,-97.80
658,1396397627,-0.1128,0.7710,0.2168,74.39,12.68,-98.05
659,1396402627,-0.1147,0.7891,0.2168,60.30,11.46,-98.41
660,1396407627,-0.0903,0.7812,0.1958,44.94,10.37,-98.90
661,1396412778,-0.0728,0.7812,0.2173,26.77,9.45,-99.76
662,1396417994,-0.0815,0.7959,0.2529,13.66,9.27,-100.98
663,1396423006,-0.0767,0.7822,0.2773,3.11,9.27,-102.38
664,1396427629,-0.0923,0.7715,0.2773,-3.35,9.51,-103.54
665,1396432628,-0.1392,0.7671,0.2729,-9.94,10.06,-105.67
666,1396437665,-0.1484,0.7515,0.2651,-12.93,10.55,-107.62
667,1396442630,-0.1235,0.7466,0.2720,-13.66,11.22,-109.82
668,1396447629,-0.1133,0.7383,0.2578,-12.80,11.71,-111.59
669,1396452627,-0.0967,0.7383,0.2778,-9.21,12.99,-114.76
670,1396457630,-0.0986,0.7334,0.2939,-4.57,14.45,-117.44
671,1396462629,-0.1040,0.7402,0.2925,0.79,16.28,-120.00
672,1396467629,-0.0986,0.7490,0.2983,5.55,17.99,-122.87
673,1396472630,-0.0820,0.7583,0.3066,9.02,19.45,-125.61
674,1396477629,-0.0962,0.7886,0.3164,11.46,20.61,-128.41
675,1396482642,-0.1108,0.8081,0.3325,13.05,21.59,-131.46
676,1396487629,-0.1128,0.8394,0.3560,14.39,22.32,-134.27
677,1396492628,-0.1304,0.8774,0.3760,15.79,22.87,-136.83
678,1396497629,-0.1294,0.9248,0.3926,17.44,22.87,-139.09
679,1396502627,-0.1406,0.9717,0.3955,19.27,22.80,-141.10
680,1396507627,-0.1743,1.0098,0.3950,20.79,22.44,-142.32
681,1396512627,-0.2368,1.0449,0.3682,23.17,21.89,-143.48
682,1396517630,-0.2656,1.0762,0.3535,25.12,21.28,-144.09
683,1396522628,-0.2798,1.1133,0.3291,27.38,20.67,-144.45
684,1396527629,-0.2739,1.1387,0.3179,29.76,20.43,-144.70
685,1396532630,-0.2627,1.1641,0.2896,33.05,20.55,-144.70
686,1396537629,-0.2554,1.1826,0.3018,37.13,21.04,-144.51
687,1396542628,-0.2407,1.1973,0.3081,41.71,21.46,-144.33
688,1396547629,-0.2134,1.2036,0.3281,46.16,22.50,-144.09
689,1396552627,-0.2236,1.1768,0.3813,50.00,23.72,-143.84
690,1396557631,-0.2310,1.1855,0.3882,52.07,24.63,-143.84
691,1396562627,-0.2466,1.1821,0.4175,52.56,25.49,-143.96
692,1396567629,-0.3037,1.1592,0.3882,49.45,25.85,-144.21
693,1396572630,-0.2573,1.1436,0.4766,43.48,26.28,-144.76
694,1396577629,-0.2539,1.1646,0.4277,37.26,27.20,-145.43
695,1396582630,-0.2612,1.2217,0.3525,32.44,27.26,-145.73
696,1396587629,-0.2759,1.2778,0.4170,29.51,27.56,-145.79
697,1396592627,-0.2729,1.3027,0.4468,29.21,27.26,-145.67
698,1396597627,-0.2617,1.3193,0.4429,31.77,26.34,-145.24
699,1396602629,-0.2808,1.3403,0.4634,37.38,24.88,-144.70
700,1396607630,-0.3091,1.3525,0.4556,44.70,23.05,-144.09
701,1396612629,-0.3501,1.3672,0.4053,52.87,21.34,-143.35
702,1396617627,-0.3936,1.3760,0.3750,60.43,19.70,-142.32
703,1396622628,-0.4077,1.3750,0.3975,67.13,18.23,-141.22
704,1396627629,-0.4292,1.3750,0.4312,73.17,16.77,-139.82
705,1396632627,-0.4585,1.3687,0.4702,77.99,15.30,-138.41
706,1396637665,-0.4810,1.3560,0.5020,80.55,13.84,-136.95
707,1396642630,-0.4980,1.3506,0.5088,79.51,12.13,-135.61
708,1396647629,-0.4922,1.3340,0.4976,74.82,10.37,-134.51
709,1396652630,-0.5073,1.3218,0.5103,67.80,8.60,-133.29
710,1396657629,-0.5264,1.3184,0.5015,58.66,6.89,-132.20
711,1396662628,-0.5225,1.3145,0.4888,47.87,5.61,-131.04
712,1396667629,-0.5068,1.3271,0.4761,36.28,4.27,-129.88
713,1396672627,-0.5068,1.3525,0.4751,25.37,2.93,-128.84
714,1396677628,-0.4976,1.3701,0.4800,16.65,1.83,-127.62
715,1396682627,-0.4888,1.3853,0.4849,11.40,1.04,-126.16
716,1396687629,-0.5181,1.3857,0.4922,9.94,0.37,-124.27
717,1396692630,-0.4941,1.3960,0.4653,12.20,-0.49,-122.50
718,1396697629,-0.4683,1.3906,0.4688,16.71,-1.52,-120.49
719,1396702628,-0.4683,1.4043,0.5112,22.80,-2.62,-118.17
720,1396707629,-0.4409,1.4395,0.5659,31.65,-4.33,-115.73
721,1396712630,-0.4253,1.4688,0.5889,42.68,-6.59,-112.93
722,1396717629,-0.4585,1.4692,0.5996,53.17,-9.27,-110.12
723,1396722627,-0.5103,1.4526,0.5889,60.37,-12.13,-107.32
724,1396727627,-0.5220,1.4385,0.5874,63.66,-15.43,-104.76
725,1396732627,-0.5220,1.4229,0.5967,63.48,-18.66,-102.50
726,1396737627,-0.5767,1.3984,0.6372,60.37,-21.83,-100.30
727,1396742631,-0.6289,1.3628,0.6499,53.66,-24.63,-98.35
728,1396747627,-0.6201,1.3179,0.6455,42.93,-27.44,-96.83
729,1396752630,-0.6421,1.2808,0.7090,29.63,-29.70,-96.04
730,1396757629,-0.6299,1.2139,0.7598,15.61,-31.83,-95.73
731,1396762628,-0.6382,1.1450,0.7812,1.95,-33.78,-96.22
732,1396767629,-0.6968,1.0552,0.7764,-11.59,-35.91,-97.13
733,1396772628,-0.7432,0.9937,0.8018,-24.82,-37.87,-99.21
734,1396777629,-0.6699,0.9595,0.9775,-32.38,-40.30,-101.52
735,1396782627,-0.6768,0.9556,1.0737,-26.59,-44.57,-104.33
736,1396787627,-0.7695,0.9189,0.9805,-15.30,-50.61,-107.50
737,1396792630,-0.7622,0.8691,0.8457,-7.74,-56.65,-110.73
738,1396797629,-0.7666,0.8384,0.8135,-1.95,-61.83,-114.33
739,1396802630,-0.8096,0.8071,0.8315,5.73,-66.40,-117.93
740,1396807629,-0.8599,0.7759,0.8403,14.76,-70.91,-121.83
741,1396812627,-0.8931,0.7407,0.8232,23.66,-75.85,-125.91
742,1396817628,-0.8975,0.7432,0.8247,31.28,-80.79,-130.37
743,1396822631,-0.8989,0.7563,0.8232,37.80,-85.98,-134.88
744,1396827627,-0.9316,0.7993,0.8931,41.71,-91.59,-139.02
745,1396832628,-0.9600,0.8506,0.9590,42.87,-97.56,-142.56
746,1396837629,-0.9692,0.9028,0.9956,40.85,-104.51,-145.43
747,1396842627,-0.9858,0.9570,1.0200,35.61,-111.71,-147.68
748,1396847629,-0.9980,0.9951,1.0254,26.04,-118.78,-149.63
749,1396852628,-1.0142,1.0298,1.0122,13.84,-125.73,-151.34
750,1396857629,-1.0234,1.0635,0.9941,0.67,-132.01,-152.80
751,1396862628,-1.0176,1.1348,0.9961,-10.55,-138.17,-153.96
752,1396867629,-1.0137,1.2178,1.0098,-15.06,-144.21,-154.39
753,1396872900,-1.0034,1.2515,0.9771,-13.66,-150.49,-154.21
754,1396877629,-0.9800,1.2334,0.9072,-13.90,-155.98,-154.21
755,1396882628,-0.9980,1.1899,0.7500,-19.15,-160.91,-154.76
756,1396887629,-1.0254,1.1963,0.7871,-22.07,-164.94,-155.12
757,1396892627,-1.0474,1.2163,0.8145,-20.67,-167.80,-155.30
758,1396897627,-1.0303,1.2397,0.7412,-14.94,-171.04,-155.24
759,1396902627,-1.0234,1.2764,0.7559,-6.10,-174.02,-154.76
760,1396907630,-1.0151,1.3008,0.7998,3.84,-176.89,-153.90
761,1396912629,-1.0020,1.3013,0.7788,12.13,-179.88,-152.80
762,1396917629,-1.0166,1.3247,0.7808,16.65,-183.11,-151.04
763,1396922648,-1.0439,1.3516,0.8267,16.10,-186.16,-148.96
764,1396927629,-1.0420,1.3848,0.8398,10.98,-189.39,-146.52
765,1396932630,-1.0396,1.4067,0.8481,2.07,-192.38,-143.78
766,1396937629,-1.0640,1.4414,0.8901,-9.76,-195.06,-140.43
767,1396942628,-1.0752,1.4746,0.8965,-23.41,-197.13,-137.07
768,1396947629,-1.0366,1.5117,0.8721,-38.23,-199.33,-133.66
769,1396952628,-1.0103,1.5366,0.8623,-52.26,-201.46,-130.55
770,1396957629,-0.9912,1.5542,0.8569,-62.68,-203.29,-127.32
771,1396962627,-0.9780,1.5698,0.8247,-67.38,-204.88,-124.27
772,1396967627,-0.9517,1.5698,0.8218,-65.98,-206.46,-121.04
773,1396972627,-0.9272,1.5645,0.8242,-59.63,-207.62,-117.56
774,1396977627,-0.9346,1.5488,0.8154,-50.00,-208.72,-113.96
775,1396982628,-0.9546,1.5322,0.8149,-39.88,-210.00,-110.00
776,1396987628,-0.9795,1.5156,0.8271,-32.13,-211.46,-106.04
777,1396992629,-0.9800,1.4995,0.8223,-28.72,-212.87,-102.32
778,1396997627,-0.9590,1.4771,0.8335,-29.63,-214.39,-98.84
779,1397002627,-0.9434,1.4556,0.8623,-34.09,-215.91,-95.73
780,1397007628,-0.9370,1.4434,0.8799,-41.22,-217.26,-92.87
781,1397012629,-0.9141,1.4453,0.8887,-50.24,-218.66,-90.06
782,1397017627,-0.9277,1.4023,0.9126,-59.70,-219.94,-87.38
783,1397022630,-0.9155,1.4517,0.9409,-67.13,-221.10,-84.63
784,1397027629,-0.8350,1.4268,0.9160,-72.20,-222.56,-82.26
785,1397032628,-0.7510,1.4175,0.9067,-75.37,-223.96,-80.12
786,1397037629,-0.7114,1.4067,0.8945,-77.32,-225.67,-78.23
787,1397042627,-0.6938,1.4028,0.8813,-77.56,-227.44,-76.65
788,1397047627,-0.6953,1.4087,0.9038,-76.46,-228.90,-74.88
789,1397052629,-0.7017,1.4033,0.9263,-75.06,-229.76,-72.80
790,1397057629,-0.7222,1.3979,0.9199,-74.94,-230.37,-70.67
791,1397062627,-0.7539,1.3896,0.9355,-77.13,-230.55,-68.23
792,1397067628,-0.7847,1.3896,0.9463,-81.59,-230.55,-65.61
793,1397072629,-0.7832,1.3887,0.9355,-87.56,-230.37,-62.99
794,1397077627,-0.7700,1.3887,0.9487,-93.23,-230.06,-60.30
795,1397082630,-0.7793,1.3882,0.9556,-97.87,-229.88,-57.50
796,1397087629,-0.8066,1.3838,0.9551,-101.83,-229.51,-54.39
797,1397092627,-0.7949,1.3779,0.9453,-105.30,-229.63,-51.10
798,1397097627,-0.7671,1.3652,0.9414,-108.54,-229.82,-47.74
799,1397102631,-0.7539,1.3462,0.9351,-110.98,-230.73,-44.63
800,1397107627,-0.7705,1.3213,0.9512,-111.95,-231.65,-41.46
801,1397112628,-0.7661,1.2896,0.9482,-111.28,-232.50,-38.41
802,1397117629,-0.7310,1.2563,0.9512,-109.76,-233.54,-35.55
803,1397122630,-0.6777,1.2197,0.9282,-108.60,-234.70,-33.05
804,1397127630,-0.6265,1.1816,0.9233,-108.11,-235.79,-30.67
805,1397132627,-0.6343,1.1611,0.9351,-107.87,-236.52,-28.48
806,1397137630,-0.6357,1.1426,0.9463,-107.87,-237.20,-26.34
807,1397142629,-0.6255,1.1235,0.9492,-108.60,-237.13,-24.51
808,1397147628,-0.6294,1.0864,0.9644,-110.00,-236.83,-22.44
809,1397152627,-0.6631,1.0752,0.9829,-111.83,-235.98,-20.30
810,1397157627,-0.6768,1.0547,0.9971,-114.70,-234.82,-17.99
811,1397162627,-0.6919,1.0405,0.9980,-119.15,-233.66,-15.98
812,1397167627,-0.6787,1.0210,0.9922,-125.12,-232.20,-14.27
813,1397172627,-0.6626,1.0083,0.9951,-131.77,-230.91,-12.99
814,1397177743,-0.6440,0.9756,0.9941,-138.90,-229.76,-12.07
815,1397182685,-0.6245,0.9497,0.9868,-145.98,-228.66,-11.52
816,1397187627,-0.5825,0.9141,0.9702,-152.38,-227.68,-11.28
817,1397192630,-0.5386,0.8882,0.9634,-157.62,-227.07,-11.16
818,1397197631,-0.5044,0.8633,0.9438,-161.59,-226.46,-11.16
819,1397202629,-0.4834,0.8511,0.9146,-164.15,-226.10,-11.40
820,1397207629,-0.4565,0.8301,0.9009,-164.39,-226.04,-11.77
821,1397212627,-0.4556,0.8247,0.8975,-161.59,-225.98,-11.83
822,1397217630,-0.4648,0.8145,0.8984,-155.73,-225.67,-12.01
823,1397222628,-0.4688,0.7974,0.9082,-147.93,-225.18,-11.95
824,1397227630,-0.4810,0.7832,0.9121,-140.06,-224.57,-11.65
825,1397232629,-0.4785,0.7505,0.9321,-133.60,-224.09,-10.98
826,1397237629,-0.4902,0.7324,0.9580,-130.37,-223.17,-10.18
827,1397242629,-0.5132,0.7124,0.9819,-130.73,-222.26,-9.33
828,1397247629,-0.5352,0.6904,1.0190,-134.88,-221.22,-8.66
829,1397252627,-0.5522,0.6680,1.0459,-142.44,-220.12,-8.11
830,1397257629,-0.5381,0.6431,1.0469,-153.05,-219.15,-7.87
831,1397262628,-0.5068,0.6157,1.0288,-165.55,-218.35,-7.93
832,1397267627,-0.4771,0.5942,1.0244,-177.56,-217.99,-8.48
833,1397272640,-0.4390,0.5747,1.0239,-186.59,-217.68,-9.57
834,1397277631,-0.4033,0.5615,1.0107,-192.07,-217.44,-10.98
835,1397282627,-0.3750,0.5386,0.9888,-194.39,-217.62,-12.68
836,1397287629,-0.3521,0.5176,0.9800,-193.84,-218.05,-14.45
837,1397292631,-0.3159,0.5015,0.9634,-190.61,-218.72,-16.22
838,1397297628,-0.2783,0.4814,0.9487,-185.61,-219.63,-17.99
839,1397302631,-0.2500,0.4795,0.9209,-180.24,-220.79,-19.88
840,1397307627,-0.2275,0.4756,0.8936,-175.30,-222.32,-21.95
841,1397312629,-0.2227,0.4648,0.8809,-171.10,-223.90,-23.96
842,1397317628,-0.2256,0.4683,0.8716,-167.26,-225.67,-25.73
843,1397322631,-0.2588,0.4727,0.8716,-163.60,-227.13,-27.38
844,1397327628,-0.2695,0.4722,0.8657,-160.49,-228.60,-28.90
845,1397332627,-0.2861,0.4536,0.8638,-157.50,-229.76,-30.06
846,1397337628,-0.3149,0.4341,0.8735,-154.51,-230.67,-30.85
847,1397342627,-0.3286,0.4106,0.8735,-151.89,-231.16,-31.28
848,1397347627,-0.3071,0.3960,0.8604,-149.88,-231.40,-31.65
849,1397352627,-0.2754,0.3799,0.8657,-149.27,-231.65,-31.89
850,1397357627,-0.2480,0.3638,0.8564,-150.55,-231.65,-32.01
851,1397362629,-0.2637,0.3628,0.8477,-154.45,-231.59,-31.95
852,1397367627,-0.2593,0.3687,0.8105,-160.79,-232.07,-32.13
853,1397372627,-0.2285,0.3774,0.7822,-168.41,-232.93,-32.56
854,1397377631,-0.1885,0.3892,0.7578,-175.12,-233.90,-33.54
855,1397382627,-0.1558,0.3848,0.7324,-179.02,-235.06,-34.39
856,1397387627,-0.1343,0.4033,0.6929,-179.15,-236.52,-35.30
857,1397392630,-0.1191,0.4116,0.6484,-175.43,-238.05,-36.10
858,1397397628,-0.0947,0.4116,0.6084,-167.68,-239.82,-36.59
859,1397402627,-0.0732,0.4033,0.5928,-156.22,-241.34,-36.65
860,1397407631,-0.0664,0.3892,0.5884,-142.44,-242.80,-36.22
861,1397412628,-0.0635,0.3696,0.5747,-129.21,-243.90,-35.55
862,1397417627,-0.0698,0.3418,0.5498,-119.27,-244.57,-34.33
863,1397422627,-0.0469,0.3140,0.5356,-114.02,-245.30,-32.99
864,1397427627,-0.0225,0.2925,0.5386,-113.35,-245.79,-31.83
865,1397432627,-0.0151,0.2783,0.5479,-116.28,-245.73,-30.91
866,1397437631,-0.0146,0.2573,0.5474,-122.13,-245.24,-30.30
867,1397442629,-0.0176,0.2422,0.5337,-130.67,-244.76,-29.88
868,1397447628,0.0166,0.2466,0.5254,-140.79,-244.21,-29.88
869,1397452627,0.0547,0.2642,0.5142,-150.85,-243.90,-30.43
870,1397457631,0.0718,0.2720,0.5000,-159.09,-243.17,-31.34
871,1397462628,0.0747,0.2861,0.4570,-164.76,-242.87,-32.20
872,1397467630,0.1294,0.2822,0.4038,-166.59,-242.62,-32.87
873,1397472631,0.1748,0.2842,0.3638,-164.21,-242.56,-33.48
874,1397477628,0.2080,0.2725,0.3213,-157.87,-242.68,-33.84
875,1397482925,0.2324,0.2646,0.2852,-148.84,-242.74,-34.02
876,1397487630,0.2500,0.2578,0.2417,-139.09,-243.05,-34.09
877,1397492629,0.2788,0.2456,0.2192,-129.94,-243.17,-34.15
878,1397497629,0.3066,0.2275,0.1919,-123.17,-243.41,-34.21
879,1397502627,0.3135,0.2231,0.1582,-119.39,-243.60,-34.33
880,1397507627,0.3306,0.2114,0.1465,-118.54,-243.90,-34.63
881,1397512627,0.3560,0.2192,0.1401,-119.15,-243.96,-34.88
882,1397517627,0.3530,0.2305,0.1475,-120.67,-243.90,-35.30
883,1397522627,0.3589,0.2490,0.1670,-123.23,-243.41,-35.67
884,1397527631,0.3135,0.2607,0.1626,-127.26,-243.05,-35.91
885,1397532628,0.2651,0.2583,0.1353,-133.05,-242.74,-35.67
886,1397537631,0.2744,0.2661,0.1230,-138.96,-242.68,-35.00
887,1397542662,0.2852,0.2744,0.1226,-143.72,-242.56,-34.02
888,1397547630,0.2744,0.2676,0.0996,-146.71,-242.38,-32.87
889,1397552627,0.2534,0.2549,0.0527,-148.29,-242.13,-31.59
890,1397557629,0.2876,0.2266,-0.0049,-148.23,-242.32,-30.30
891,1397562627,0.3638,0.2231,-0.0273,-145.85,-242.56,-29.21
892,1397567627,0.3906,0.2075,-0.0459,-141.52,-242.07,-28.48
893,1397572631,0.3848,0.1978,-0.0830,-137.13,-241.65,-27.99
894,1397577628,0.4111,0.1958,-0.1309,-134.57,-241.34,-27.99
895,1397582627,0.4746,0.1929,-0.1484,-134.45,-241.04,-28.48
896,1397587970,0.5161,0.2129,-0.1538,-136.46,-240.73,-29.57
897,1397592629,0.5303,0.2241,-0.1606,-140.98,-240.30,-31.10
898,1397597628,0.5127,0.2358,-0.1997,-147.80,-240.43,-32.62
899,1397602627,0.4897,0.2476,-0.2407,-155.55,-241.28,-34.21
900,1397607730,0.5005,0.2627,-0.2695,-161.22,-242.56,-35.67
901,1397612631,0.5317,0.2988,-0.2710,-162.32,-244.33,-37.20
902,1397617628,0.5254,0.3203,-0.2900,-159.02,-246.10,-38.66
903,1397622627,0.4668,0.3267,-0.3267,-152.80,-248.05,-39.70
904,1397627629,0.4507,0.3418,-0.3828,-145.06,-250.55,-40.12
905,1397632631,0.4819,0.3916,-0.3857,-137.01,-253.35,-40.30
906,1397637628,0.4805,0.4302,-0.3970,-130.43,-255.85,-40.43
907,1397642627,0.4004,0.4561,-0.4443,-126.04,-258.17,-40.00
908,1397647627,0.3354,0.4590,-0.5073,-123.60,-260.61,-39.09
909,1397652627,0.3628,0.4722,-0.5435,-120.61,-263.05,-37.80
910,1397657644,0.4033,0.4946,-0.5474,-115.61,-264.94,-36.65
911,1397662627,0.4028,0.4878,-0.5894,-107.56,-266.16,-35.37
912,1397667630,0.4058,0.4624,-0.6230,-102.07,-266.83,-34.51
913,1397672627,0.4336,0.4370,-0.6748,-95.67,-267.44,-33.35
914,1397677627,0.4658,0.4326,-0.6831,-90.18,-267.80,-32.74
915,1397682629,0.4771,0.3950,-0.6904,-85.85,-267.93,-32.80
916,1397687628,0.4570,0.3613,-0.6855,-83.05,-268.29,-33.17
917,1397692629,0.5537,0.4033,-0.6719,-82.44,-268.60,-34.15
918,1397697628,0.5796,0.3672,-0.7393,-85.24,-268.84,-35.91
919,1397702630,0.4932,0.3330,-0.7300,-89.70,-268.90,-37.13
920,1397707628,0.4580,0.3613,-0.7441,-94.33,-268.66,-37.80
921,1397712627,0.4590,0.3882,-0.7832,-98.54,-267.99,-37.99
922,1397717627,0.3877,0.3955,-0.8071,-102.38,-266.89,-37.62
923,1397722631,0.3247,0.4106,-0.8516,-105.67,-265.37,-36.22
924,1397727628,0.3115,0.4438,-0.9033,-108.17,-263.96,-34.15
925,1397732627,0.3120,0.4814,-0.9150,-109.63,-262.44,-31.77
926,1397737630,0.2847,0.5308,-0.9429,-110.12,-260.91,-29.09
927,1397742630,0.2563,0.5449,-0.9810,-109.15,-259.45,-26.59
928,1397747629,0.2759,0.5679,-0.9868,-105.55,-258.23,-24.09
929,1397752627,0.2954,0.5889,-0.9751,-99.39,-257.01,-21.65
930,1397757627,0.3096,0.5884,-0.9746,-91.52,-256.16,-19.82
931,1397762627,0.3540,0.5605,-0.9756,-82.74,-255.55,-18.48
932,1397767630,0.3662,0.5459,-0.9604,-74.39,-255.06,-17.80
933,1397772628,0.4282,0.5732,-0.9448,-67.93,-255.18,-18.11
934,1397777627,0.4829,0.5522,-0.9561,-63.78,-255.73,-19.51
935,1397782629,0.4810,0.5640,-0.9429,-61.71,-256.04,-21.16
936,1397787631,0.4058,0.5889,-0.9497,-62.32,-256.16,-22.74
937,1397792627,0.2812,0.5688,-0.9985,-64.70,-255.79,-23.84
938,1397797988,0.1445,0.5649,-1.0581,-67.80,-254.88,-23.96
939,1397802629,0.0923,0.5698,-1.0825,-70.12,-253.84,-23.17
940,1397807628,0.1006,0.5830,-1.0923,-71.22,-251.95,-22.01
941,1397812631,0.0986,0.6206,-1.1069,-71.46,-249.70,-20.91
942,1397817628,0.0903,0.6323,-1.1113,-71.10,-247.20,-19.94
943,1397822629,0.1030,0.6265,-1.1113,-70.49,-245.06,-18.78
944,1397827628,0.1187,0.6401,-1.1035,-70.18,-242.99,-17.99
945,1397832629,0.1748,0.6489,-1.0830,-70.79,-241.10,-17.68
946,1397837628,0.2119,0.6558,-1.0420,-72.20,-239.39,-17.99
947,1397842629,0.1938,0.6738,-1.0229,-74.94,-238.41,-19.15
948,1397847628,0.1558,0.6328,-1.0088,-77.93,-237.93,-21.28
949,1397852627,0.0889,0.5693,-0.9927,-80.24,-237.62,-23.48
950,1397857629,0.0332,0.5620,-0.9824,-82.20,-237.93,-26.22
951,1397863088,0.0332,0.5688,-1.0020,-84.70,-239.02,-29.76
952,1397867630,-0.0322,0.5239,-1.0063,-87.50,-240.55,-33.66
953,1397872627,-0.1729,0.4741,-0.9985,-90.18,-242.20,-37.32
954,1397877630,-0.2896,0.4609,-0.9824,-92.80,-243.84,-40.98
955,1397882628,-0.3477,0.4458,-0.9707,-95.73,-245.55,-44.76
956,1397887629,-0.3716,0.4365,-0.9683,-98.60,-247.56,-48.90
957,1397892628,-0.3872,0.4351,-0.9546,-100.98,-250.06,-53.78
958,1397897627,-0.3721,0.4302,-0.9272,-102.32,-252.44,-59.09
959,1397902627,-0.3560,0.4263,-0.9072,-102.50,-255.06,-65.12
960,1397907628,-0.3579,0.4272,-0.8867,-101.77,-257.68,-71.59
961,1397912627,-0.3770,0.4072,-0.8569,-100.61,-260.73,-78.41
962,1397917627,-0.4136,0.4116,-0.8408,-98.96,-263.72,-85.73
963,1397922631,-0.4854,0.4048,-0.8228,-97.13,-267.07,-93.54
964,1397927629,-0.5830,0.3574,-0.8037,-95.49,-270.61,-101.52
965,1397932629,-0.6934,0.3179,-0.7666,-94.39,-274.33,-109.27
966,1397937629,-0.7881,0.3115,-0.7490,-95.00,-278.05,-117.50
967,1397942630,-0.8501,0.3184,-0.7378,-98.05,-282.07,-126.65
968,1397947629,-0.9297,0.3130,-0.7378,-103.48,-286.28,-136.83
969,1397952627,-1.0469,0.2983,-0.7422,-110.61,-290.73,-147.80
970,1397957627,-1.1611,0.2764,-0.7393,-118.35,-295.37,-159.51
971,1397962627,-1.2563,0.2588,-0.7231,-126.40,-300.06,-171.83
972,1397967630,-1.3184,0.2544,-0.7188,-133.54,-304.45,-185.43
973,1397972631,-1.3613,0.2617,-0.7114,-139.76,-308.96,-200.12
974,1397977628,-1.3843,0.2661,-0.6978,-143.90,-313.23,-215.91
975,1397982627,-1.4233,0.2559,-0.6675,-145.98,-317.56,-232.74
976,1397987629,-1.4922,0.2461,-0.6460,-145.79,-321.59,-250.49
977,1397992629,-1.5752,0.2446,-0.6519,-144.27,-325.67,-269.27
978,1397997628,-1.6543,0.2451,-0.6592,-142.32,-330.18,-289.09
979,1398002629,-1.7666,0.2617,-0.6709,-140.55,-335.49,-309.88
980,1398007628,-1.9146,0.2837,-0.6782,-139.76,-341.04,-332.20
981,1398012629,-2.0830,0.3267,-0.6631,-140.00,-347.26,-355.79
982,1398017628,-2.2520,0.3877,-0.6304,-140.91,-353.35,-381.28
983,1398022631,-2.4229,0.4189,-0.6143,-141.77,-358.78,-408.35
984,1398027628,-2.6826,0.4106,-0.6313,-140.79,-363.90,-436.40
985,1398032629,-3.0752,0.3955,-0.6392,-137.26,-368.35,-464.70
986,1398037628,-3.5122,0.3491,-0.6616,-130.55,-372.44,-492.68
987,1398042631,-3.9014,0.3037,-0.6709,-120.85,-376.04,-520.12
988,1398047628,-4.2925,0.3198,-0.6621,-109.33,-378.60,-547.07
989,1398052643,-4.7549,0.3979,-0.6333,-97.62,-379.76,-574.51
990,1398057627,-5.3262,0.4731,-0.6147,-87.26,-378.90,-603.17
991,1398062631,-5.9565,0.4995,-0.6890,-80.06,-376.52,-632.93
992,1398067628,-6.6440,0.5059,-0.8442,-78.48,-372.13,-663.66
993,1398072627,-7.4668,0.4834,-1.1685,-87.62,-365.98,-702.38
994,1398077629,-8.0415,0.5029,-1.4072,-101.71,-360.55,-729.70
995,1398082628,-8.7437,0.5083,-1.7510,-128.05,-351.46,-766.52
996,1398087629,-9.3408,0.4023,-2.1206,-160.37,-337.74,-806.22
997,1398092629,-9.8364,0.3335,-2.3911,-194.21,-317.50,-848.35
998,1398097628,-10.2158,0.4023,-2.5703,-225.91,-287.74,-893.90
999,1398102627,-10.4819,0.5117,-2.7314,-253.17,-247.32,-943.72
1000,1398107629,-10.7334,0.6152,-2.9463,-273.96,-196.34,-996.95
1001,1398112627,-11.0518,0.7563,-3.1694,-287.50,-137.38,-1052.56
1002,1398117627,-11.4858,0.9292,-3.3496,-293.66,-70.98,-1108.54
1003,1398122632,-12.0747,1.1323,-3.4805,-292.93,1.22,-1163.54
1004,1398127628,-12.7368,1.3774,-3.5474,-286.83,77.80,-1216.52
1005,1398132627,-13.5645,1.6807,-3.5918,-276.22,157.13,-1266.65
1006,1398137629,-14.5103,2.0332,-3.6240,-261.89,237.44,-1313.48
1007,1398142899,-15.5293,2.4346,-3.5972,-245.37,316.65,-1356.28
1008,1398147629,-15.9834,2.7856,-3.6221,-226.34,393.72,-1394.57
1009,1398152630,-15.9995,3.1133,-3.3418,-202.93,466.28,-1427.74
1010,1398157629,-16.0000,3.5586,-3.1724,-175.43,535.12,-1456.10
1011,1398162627,-16.0000,4.1001,-3.0679,-149.70,599.15,-1481.22
1012,1398167630,-16.0000,4.6255,-2.6758,-122.26,659.33,-1504.57
1013,1398172628,-16.0000,5.1597,-2.2207,-96.95,717.01,-1527.20
1014,1398178061,-16.0000,5.7593,-1.9907,-78.54,780.37,-1550.30
1015,1398182629,-16.0000,6.2300,-1.7456,-71.04,817.93,-1560.49
1016,1398187628,-16.0000,6.7388,-1.2236,-72.13,862.99,-1564.70
1017,1398192629,-16.0000,7.3818,-0.8442,-77.44,905.61,-1556.04
1018,1398197631,-16.0000,8.1558,0.1060,-78.66,945.30,-1532.38
1019,1398202627,-16.0000,9.0518,0.6558,-74.70,980.73,-1491.65
1020,1398207629,-16.0000,9.9419,1.3110,-73.78,1008.11,-1434.02
1021,1398212630,-16.0000,10.1519,2.3789,-85.79,1032.38,-1362.20
1022,1398217628,-16.0000,10.6147,3.0957,-125.18,1058.66,-1277.87
1023,1398222631,-16.0000,10.9497,3.2324,-214.21,1087.50,-1182.80
1024,1398227628,-16.0000,10.7529,3.9800,-359.09,1125.73,-1074.63
1025,1398232627,-16.0000,10.2319,4.4902,-557.20,1177.32,-950.61
1026,1398237627,-16.0000,9.7256,4.5781,-788.96,1238.72,-809.63
1027,1398242627,-16.0000,9.1094,5.1597,-1035.37,1308.11,-650.73
1028,1398247631,-16.0000,8.1724,5.8135,-1270.55,1378.48,-472.44
1029,1398252629,-16.0000,7.1304,6.1079,-1473.78,1435.61,-275.55
1030,1398257628,-16.0000,5.9775,6.2852,-1636.89,1458.23,-62.32
1031,1398262627,-15.6597,4.8569,6.3174,-1766.77,1456.04,157.26
1032,1398267627,-15.1021,3.8701,6.1650,-1861.10,1405.43,372.50
1033,1398272627,-14.4326,3.0303,5.8350,-1921.77,1312.93,570.37
1034,1398277631,-13.5342,2.2314,5.5410,-1955.06,1183.54,743.54
1035,1398282628,-12.6978,1.4819,5.1338,-1950.24,1024.76,886.34
1036,1398287627,-12.2715,1.1792,4.7808,-1887.50,846.52,995.49
1037,1398292631,-12.1768,1.0244,4.4116,-1764.70,661.40,1066.28
1038,1398297628,-12.0522,0.8369,3.7007,-1581.83,483.60,1099.51
1039,1398302782,-11.6694,0.7300,3.2573,-1346.83,323.29,1099.33
1040,1398307629,-11.0894,0.6118,2.8364,-1077.20,187.87,1072.07
1041,1398312629,-10.6514,0.3555,2.2593,-802.74,80.24,1026.46
1042,1398317629,-10.3159,-0.0044,1.8149,-550.67,-5.12,971.89
1043,1398322627,-9.9321,-0.2856,1.4961,-340.98,-74.88,914.94
1044,1398327630,-9.4116,-0.9790,1.0474,-181.59,-131.22,859.57
1045,1398332629,-8.7090,-0.9160,1.1401,-68.41,-179.39,808.41
1046,1398337627,-8.4858,-1.1348,1.0820,11.40,-219.51,761.28
1047,1398342629,-8.5376,-1.3301,1.0693,67.38,-249.51,719.88
1048,1398347628,-8.2124,-1.5088,1.3677,107.20,-272.07,683.29
1049,1398352629,-7.6992,-1.5737,1.4507,134.39,-287.32,650.67
1050,1398357628,-7.3149,-1.5020,1.5156,149.39,-294.45,620.98
1051,1398362631,-7.1016,-1.4292,1.8174,152.44,-295.55,593.84
1052,1398367628,-6.7656,-1.2915,1.9487,140.12,-292.32,567.62
1053,1398372627,-6.3501,-1.1060,1.8926,111.59,-285.18,540.98
1054,1398377627,-5.9062,-0.9404,1.9575,70.61,-277.26,513.11
1055,1398382631,-5.5332,-0.7759,1.9795,23.54,-269.09,485.12
1056,1398387628,-5.3452,-0.5195,1.8931,-24.39,-260.43,457.56
1057,1398392627,-5.1973,-0.3140,1.8105,-68.90,-252.50,430.18
1058,1398397627,-4.9224,-0.1860,1.6914,-105.67,-245.79,403.78
1059,1398402629,-4.6299,-0.0576,1.5532,-130.73,-239.88,379.21
1060,1398407628,-4.3633,0.0679,1.4624,-142.32,-234.51,356.10
1061,1398412629,-4.1318,0.1909,1.3970,-139.94,-229.51,334.57
1062,1398417628,-3.9414,0.3164,1.2915,-125.55,-224.21,314.70
1063,1398422627,-3.7515,0.4092,1.1938,-101.59,-219.02,296.59
1064,1398427631,-3.5444,0.4648,1.1284,-70.91,-214.09,280.61
1065,1398432629,-3.3750,0.4878,1.0962,-36.59,-209.02,266.95
1066,1398437629,-3.2944,0.5078,1.1016,-2.68,-203.48,255.91
1067,1398442627,-3.2681,0.5435,1.0996,26.34,-197.99,247.13
1068,1398447627,-3.2080,0.5684,1.0728,47.07,-192.87,240.06
1069,1398452631,-3.1250,0.5942,1.0635,58.17,-188.05,234.51
1070,1398457628,-3.0913,0.6470,1.0586,59.02,-183.66,229.70
1071,1398462627,-3.0796,0.7246,1.0054,50.61,-179.88,225.12
1072,1398467627,-3.0176,0.8062,0.9263,34.63,-177.62,220.24
1073,1398472631,-2.8779,0.8467,0.8315,14.27,-176.34,214.76
1074,1398477628,-2.6973,0.8882,0.7451,-7.13,-176.40,209.09
1075,1398482627,-2.4712,0.9321,0.6880,-26.52,-176.95,202.80
1076,1398487627,-2.2622,0.9790,0.6626,-40.91,-177.38,196.22
1077,1398492631,-2.1343,1.0269,0.6348,-49.02,-177.13,189.45
1078,1398497628,-2.0146,1.0576,0.6055,-50.37,-176.34,182.74
1079,1398502629,-1.9048,1.0957,0.5747,-45.37,-174.76,176.65
1080,1398507628,-1.7788,1.1455,0.5640,-35.18,-172.56,170.91
1081,1398512629,-1.6875,1.1699,0.5532,-21.34,-169.51,166.04
1082,1398517628,-1.6885,1.1846,0.5601,-5.30,-165.79,162.62
1083,1398522708,-1.7720,1.2139,0.5557,11.77,-161.52,160.37
1084,1398527628,-1.8496,1.2305,0.5693,29.21,-156.95,159.39
1085,1398532627,-1.8867,1.2280,0.5986,46.34,-151.71,159.63
1086,1398537627,-1.9092,1.2285,0.6201,62.01,-145.98,160.73
1087,1398542627,-1.8975,1.2129,0.6235,75.61,-139.82,162.93
1088,1398547627,-1.8491,1.1904,0.6230,86.77,-133.66,165.55
1089,1398552631,-1.7773,1.1650,0.6313,94.94,-127.56,168.54
1090,1398557755,-1.7129,1.1455,0.6382,100.00,-121.52,171.40
1091,1398562631,-1.6802,1.1216,0.6572,101.89,-115.73,174.33
1092,1398567628,-1.6626,1.1040,0.6685,100.55,-109.82,176.52
1093,1398572627,-1.6260,1.0879,0.6660,95.61,-104.33,178.48
1094,1398577627,-1.5659,1.0732,0.6704,86.89,-99.45,179.88
1095,1398582627,-1.5034,1.0415,0.6567,74.02,-95.12,181.04
1096,1398587627,-1.4570,1.0181,0.6328,57.56,-91.52,181.77
1097,1398592627,-1.4106,0.9946,0.6016,38.66,-88.35,182.13
1098,1398597627,-1.3149,0.9521,0.5903,18.66,-85.91,182.07
1099,1398602627,-1.2158,0.9189,0.5815,-0.85,-84.02,181.83
1100,1398607627,-1.1401,0.8784,0.5747,-18.96,-82.26,181.34
1101,1398612627,-1.0913,0.8477,0.5752,-35.00,-80.67,180.61
1102,1398617631,-1.0518,0.8169,0.5620,-48.96,-79.39,179.63
1103,1398622630,-1.0068,0.7920,0.5513,-60.24,-78.41,178.54
1104,1398627628,-0.9727,0.7681,0.5420,-68.54,-77.74,177.26
1105,1398632631,-0.9155,0.7402,0.5410,-73.41,-77.07,175.73
1106,1398637629,-0.8140,0.6992,0.5439,-74.15,-76.52,174.02
1107,1398642628,-0.7031,0.6660,0.5581,-71.46,-75.73,172.20
1108,1398647818,-0.6113,0.6338,0.5713,-65.43,-74.63,170.30
1109,1398652629,-0.5356,0.6108,0.5806,-56.77,-73.29,168.29
1110,1398657967,-0.4688,0.5928,0.5928,-44.33,-71.83,165.49
1111,1398662630,-0.4287,0.5806,0.5977,-35.24,-70.67,163.41
1112,1398667684,-0.3965,0.5566,0.5981,-23.96,-69.21,160.73
1113,1398672627,-0.3613,0.5464,0.6055,-13.54,-68.11,157.80
1114,1398677627,-0.3071,0.5327,0.6191,-4.51,-66.71,154.63
1115,1398682627,-0.2568,0.5195,0.6216,2.68,-65.30,151.10
1116,1398687627,-0.2285,0.5107,0.6152,7.44,-63.96,147.38
1117,1398692631,-0.2295,0.5479,0.5747,10.00,-63.11,143.35
1118,1398697628,-0.1816,0.4023,0.6899,10.24,-61.95,139.09
1119,1398702627,-0.0845,0.4429,0.5811,9.02,-60.91,135.49
1120,1398707627,-0.0171,0.4766,0.6016,6.04,-60.00,131.65
1121,1398712627,-0.0010,0.4844,0.6328,1.34,-59.57,127.56
1122,1398717955,-0.0127,0.4497,0.6245,-5.73,-58.96,122.68
1123,1398722629,-0.0122,0.3975,0.5840,-10.55,-58.35,119.76
1124,1398727629,0.0166,0.3950,0.6230,-15.85,-58.11,115.91
1125,1398732629,0.0508,0.3955,0.6328,-20.00,-57.87,112.26
1126,1398737630,0.0967,0.3804,0.5952,-22.80,-57.38,108.66
1127,1398742629,0.1382,0.3633,0.6162,-24.51,-56.71,105.18
1128,1398747629,0.1797,0.3452,0.6167,-25.06,-56.16,101.71
1129,1398752628,0.2051,0.3423,0.6050,-24.51,-55.49,98.23
1130,1398757629,0.2246,0.3428,0.6104,-22.99,-54.88,94.76
1131,1398762628,0.2451,0.3491,0.6147,-20.79,-54.15,91.34
1132,1398767627,0.2559,0.3403,0.6025,-17.99,-53.48,88.23
1133,1398772631,0.2456,0.3345,0.6045,-14.70,-52.74,84.45
1134,1398777627,0.2451,0.3311,0.6099,-10.91,-52.13,81.04
1135,1398782627,0.2534,0.3218,0.6104,-6.65,-51.28,77.68
1136,1398787627,0.2515,0.3130,0.6143,-2.32,-50.43,74.39
1137,1398792627,0.2544,0.3149,0.6211,1.95,-49.27,71.04
1138,1398797627,0.2524,0.3159,0.6260,5.73,-48.05,67.74
1139,1398802627,0.2651,0.3066,0.6206,8.60,-46.83,64.45
1140,1398807631,0.2744,0.3013,0.6250,10.43,-45.67,61.34
1141,1398812629,0.2695,0.3037,0.6250,10.79,-44.57,58.48
1142,1398817631,0.2563,0.3062,0.6235,9.57,-43.35,55.67
1143,1398822628,0.2554,0.3057,0.6191,7.20,-42.32,52.93
1144,1398827630,0.2573,0.3052,0.6162,3.48,-41.40,50.37
1145,1398832628,0.2646,0.3018,0.6270,-1.04,-40.73,47.80
1146,1398837631,0.2764,0.3076,0.6196,-5.98,-40.00,45.43
1147,1398842628,0.3052,0.2993,0.6274,-10.91,-39.27,42.99
1148,1398848060,0.3325,0.2949,0.6260,-16.40,-38.29,40.12
1149,1398852630,0.3457,0.3057,0.6284,-19.45,-37.74,38.11
1150,1398857628,0.3564,0.3101,0.6348,-22.50,-36.83,35.67
1151,1398862631,0.3569,0.3135,0.6318,-24.57,-35.91,33.05
1152,1398867628,0.3618,0.3213,0.6377,-25.67,-34.82,30.61
1153,1398872627,0.3662,0.3257,0.6313,-25.73,-33.90,27.93
1154,1398877629,0.3628,0.3286,0.6362,-24.70,-32.87,25.49
1155,1398882628,0.3569,0.3232,0.6406,-22.56,-31.83,23.23
1156,1398887627,0.3535,0.3149,0.6401,-19.51,-30.73,21.10
1157,1398892627,0.3442,0.3066,0.6431,-16.10,-29.39,19.27
1158,1398897634,0.3472,0.3003,0.6421,-12.20,-27.80,17.32
1159,1398902628,0.3486,0.3027,0.6411,-9.76,-26.77,15.98
1160,1398907629,0.3501,0.3076,0.6450,-7.80,-25.55,14.51
1161,1398912628,0.3457,0.3086,0.6362,-6.77,-24.39,12.87
1162,1398917631,0.3452,0.3145,0.6401,-6.59,-23.17,11.16
1163,1398922629,0.3413,0.3174,0.6436,-7.13,-22.38,9.94
1164,1398927629,0.3525,0.3184,0.6455,-8.29,-21.40,8.23
1165,1398932629,0.3657,0.3193,0.6465,-10.06,-20.55,6.71
1166,1398937630,0.3726,0.3188,0.6499,-12.20,-19.70,5.24
1167,1398942629,0.3770,0.3228,0.6572,-14.70,-18.90,3.78
1168,1398947627,0.3901,0.3237,0.6577,-17.74,-17.87,2.20
1169,1398953159,0.3916,0.3262,0.6572,-22.01,-16.71,0.43
1170,1398957631,0.3818,0.3252,0.6572,-25.00,-15.98,-0.79
1171,1398962715,0.3691,0.3193,0.6455,-28.35,-15.12,-2.32
1172,1398967627,0.3662,0.3145,0.6426,-31.22,-14.45,-3.72
1173,1398972627,0.3696,0.3071,0.6484,-33.11,-13.72,-5.06
1174,1398977627,0.3740,0.3003,0.6543,-33.54,-12.80,-6.40
1175,1398982627,0.3872,0.2979,0.6597,-32.87,-11.71,-7.80
1176,1398987627,0.3940,0.2886,0.6699,-30.73,-10.37,-9.45
1177,1398992627,0.3916,0.2847,0.6733,-28.84,-9.45,-10.37
1178,1398997627,0.3882,0.2856,0.6680,-26.22,-8.48,-11.52
1179,1399002627,0.3818,0.2900,0.6660,-23.60,-7.38,-12.93
1180,1399007627,0.3892,0.2954,0.6694,-21.10,-6.65,-14.33
1181,1399012627,0.3936,0.3042,0.6646,-18.84,-5.79,-15.79
1182,1399017627,0.3872,0.3096,0.6709,-17.07,-5.24,-17.56
1183,1399022627,0.3701,0.3198,0.6709,-15.49,-4.76,-19.33
1184,1399027627,0.3604,0.3286,0.6777,-14.02,-4.39,-21.22
1185,1399032627,0.3550,0.3330,0.6689,-12.32,-4.33,-23.35
1186,1399037627,0.3667,0.3350,0.6792,-10.55,-4.21,-25.43
1187,1399042708,0.3779,0.3335,0.6885,-7.93,-3.84,-28.11
1188,1399047629,0.3828,0.3320,0.6880,-5.98,-3.72,-29.76
1189,1399052628,0.3882,0.3291,0.7080,-3.60,-3.35,-31.89
1190,1399057629,0.3833,0.3311,0.7129,-1.77,-3.05,-33.90
1191,1399062628,0.3721,0.3311,0.7124,-0.61,-2.74,-35.85
1192,1399067631,0.3618,0.3359,0.7188,-0.79,-2.44,-37.87
1193,1399072669,0.3530,0.3369,0.7144,-2.07,-2.26,-39.88
1194,1399077627,0.3452,0.3345,0.7217,-4.63,-1.95,-41.89
1195,1399082627,0.3462,0.3403,0.7168,-7.87,-1.77,-43.96
1196,1399087631,0.3433,0.3418,0.7085,-11.77,-1.89,-46.16
1197,1399092627,0.3335,0.3530,0.7114,-15.79,-1.89,-48.41
1198,1399098039,0.3296,0.3569,0.7095,-20.55,-1.95,-51.34
1199,1399102628,0.3198,0.3525,0.7051,-23.78,-2.01,-53.66
1200,1399107627,0.3120,0.3457,0.7051,-25.91,-2.07,-55.49
1201,1399112757,0.3071,0.3413,0.6963,-27.62,-2.26,-58.23
1202,1399117632,0.3115,0.3384,0.6968,-27.93,-2.26,-60.06
1203,1399122629,0.3008,0.3418,0.7075,-27.62,-2.13,-62.20
1204,1399127628,0.2886,0.3438,0.7007,-26.34,-2.20,-64.39
1205,1399132629,0.2681,0.3447,0.6978,-24.63,-2.13,-66.59
1206,1399137627,0.2603,0.3467,0.6997,-22.44,-2.07,-68.66
1207,1399142989,0.2559,0.3467,0.6968,-19.70,-2.26,-71.28
1208,1399147631,0.2539,0.3550,0.7012,-17.80,-2.26,-73.05
1209,1399152694,0.2539,0.3599,0.7095,-15.12,-2.38,-75.73
1210,1399157627,0.2490,0.3579,0.7026,-13.72,-2.44,-77.38
1211,1399162631,0.2412,0.3628,0.7061,-12.38,-2.68,-79.63
1212,1399167628,0.2280,0.3711,0.7021,-11.59,-2.68,-81.89
1213,1399172663,0.2070,0.3779,0.7031,-11.40,-3.29,-84.76
1214,1399177631,0.1914,0.3848,0.6968,-11.89,-3.41,-86.65
1215,1399182627,0.1738,0.3818,0.6855,-12.68,-3.96,-89.21
1216,1399187628,0.1660,0.3804,0.6851,-13.66,-4.76,-92.38
1217,1399192630,0.1616,0.3740,0.6665,-14.45,-5.24,-94.88
1218,1399197630,0.1548,0.3696,0.6694,-14.88,-5.73,-97.01
1219,1399202629,0.1294,0.3706,0.6562,-15.00,-6.28,-100.12
1220,1399207627,0.1177,0.3584,0.6396,-14.70,-6.77,-102.13
1221,1399212629,0.1118,0.3472,0.6299,-13.96,-7.32,-105.06
1222,1399217629,0.1079,0.3398,0.6177,-12.62,-7.93,-107.50
1223,1399222628,0.1016,0.3418,0.6138,-11.46,-8.41,-109.27
1224,1399227627,0.0854,0.3472,0.6060,-9.45,-8.90,-111.65
1225,1399232627,0.0674,0.3506,0.5986,-7.13,-9.51,-114.09
1226,1399237627,0.0571,0.3477,0.6006,-4.51,-10.12,-116.34
1227,1399242627,0.0459,0.3525,0.6050,-1.89,-10.61,-118.72
1228,1399247657,0.0244,0.3682,0.6001,0.79,-11.22,-121.40
1229,1399252631,0.0020,0.3823,0.5981,2.62,-11.77,-123.60
1230,1399257628,-0.0234,0.3965,0.5957,3.78,-12.62,-126.16
1231,1399262629,-0.0400,0.4062,0.5977,4.76,-13.48,-128.72
1232,1399267627,-0.0591,0.4111,0.5947,5.91,-14.21,-131.28
1233,1399272944,-0.0742,0.4209,0.5981,7.50,-15.06,-133.78
1234,1399277629,-0.0947,0.4321,0.5977,9.63,-16.04,-136.46
1235,1399282628,-0.1167,0.4287,0.5879,12.26,-16.95,-139.15
1236,1399287629,-0.1367,0.4209,0.5854,15.43,-17.87,-141.65
1237,1399292629,-0.1494,0.4204,0.5815,18.96,-18.90,-144.02
1238,1399297629,-0.1465,0.4224,0.5679,22.99,-20.12,-146.65
1239,1399302629,-0.1377,0.4341,0.5723,27.26,-21.40,-149.21
1240,1399307627,-0.1206,0.4565,0.5859,31.28,-22.68,-151.83
1241,1399312627,-0.1084,0.4702,0.5898,34.94,-23.84,-154.76
1242,1399317665,-0.1138,0.4932,0.5938,38.05,-25.24,-157.62
1243,1399322627,-0.1255,0.5220,0.6011,40.55,-26.59,-160.67
1244,1399327627,-0.1387,0.5508,0.6045,42.32,-28.17,-163.90
1245,1399332627,-0.1606,0.5762,0.6040,43.60,-29.88,-167.20
1246,1399337628,-0.1729,0.5981,0.6069,44.45,-31.59,-170.67
1247,1399342627,-0.1831,0.6143,0.6118,45.24,-32.87,-173.48
1248,1399347627,-0.1870,0.6333,0.6235,46.16,-34.57,-176.89
1249,1399352731,-0.2012,0.6519,0.6284,48.11,-36.59,-181.16
1250,1399357629,-0.2202,0.6724,0.6328,49.94,-38.11,-184.63
1251,1399362628,-0.2476,0.6797,0.6260,51.83,-39.70,-188.05
1252,1399367627,-0.2817,0.6875,0.6265,53.90,-41.28,-191.16
1253,1399372629,-0.3174,0.6992,0.6187,55.67,-42.93,-194.39
1254,1399377627,-0.3516,0.7031,0.6108,57.44,-44.63,-197.20
1255,1399382649,-0.3853,0.7021,0.5913,58.66,-46.59,-199.82
1256,1399387627,-0.4155,0.7012,0.5737,59.63,-48.60,-202.20
1257,1399392627,-0.4468,0.7051,0.5562,60.24,-50.85,-203.96
1258,1399397631,-0.4824,0.7148,0.5557,60.73,-53.11,-205.61
1259,1399402628,-0.5117,0.7314,0.5386,61.16,-55.73,-207.01
1260,1399407629,-0.5371,0.7588,0.5317,61.65,-58.29,-208.54
1261,1399412627,-0.5322,0.7827,0.5293,62.74,-61.10,-209.88
1262,1399417627,-0.5142,0.8101,0.5371,64.45,-63.84,-211.52
1263,1399422631,-0.5020,0.8306,0.5371,67.01,-66.52,-212.99
1264,1399427628,-0.5005,0.8433,0.5425,70.49,-69.33,-214.70
1265,1399432627,-0.5020,0.8633,0.5425,74.33,-71.89,-216.10
1266,1399437628,-0.5205,0.8838,0.5449,78.48,-74.51,-217.62
1267,1399442628,-0.5425,0.9053,0.5396,82.50,-77.26,-219.15
1268,1399447627,-0.5737,0.9341,0.5317,86.71,-80.18,-220.67
1269,1399453206,-0.6040,0.9556,0.5293,90.55,-83.23,-222.20
1270,1399457629,-0.6338,0.9741,0.5288,94.57,-86.40,-223.60
1271,1399462628,-0.6528,0.9976,0.5264,98.60,-89.70,-225.00
1272,1399467629,-0.6704,1.0239,0.5312,102.68,-92.93,-226.22
1273,1399472627,-0.6797,1.0361,0.5200,106.59,-96.59,-227.32
1274,1399477628,-0.6987,1.0518,0.5142,110.12,-100.30,-227.93
1275,1399482629,-0.7295,1.0811,0.5063,113.23,-104.21,-228.48
1276,1399487631,-0.7515,1.1235,0.5063,115.55,-108.23,-228.96
1277,1399492628,-0.7563,1.1689,0.5093,117.32,-112.56,-229.51
1278,1399497627,-0.7549,1.2031,0.5137,118.96,-116.83,-230.12
1279,1399502629,-0.7476,1.2349,0.5259,120.49,-121.04,-230.79
1280,1399507629,-0.7476,1.2588,0.5312,122.44,-125.24,-231.34
1281,1399512627,-0.7549,1.2886,0.5396,124.76,-129.51,-231.89
1282,1399517627,-0.7651,1.3115,0.5352,127.26,-133.66,-232.26
1283,1399522631,-0.7739,1.3320,0.5298,130.00,-137.87,-232.44
1284,1399527628,-0.7744,1.3403,0.5308,133.84,-142.01,-232.50
1285,1399532627,-0.7793,1.3418,0.5303,137.44,-146.16,-232.01
1286,1399538287,-0.8008,1.3501,0.5259,140.73,-150.00,-231.16
1287,1399542629,-0.8223,1.3569,0.5244,143.17,-153.84,-229.82
1288,1399547629,-0.8472,1.3823,0.5137,144.39,-157.74,-228.29
1289,1399552627,-0.8701,1.3979,0.5020,144.39,-161.65,-226.34
1290,1399557630,-0.8945,1.4097,0.5000,142.74,-165.43,-224.21
1291,1399562770,-0.9185,1.4263,0.4717,139.63,-169.09,-221.59
1292,1399567629,-0.9404,1.4507,0.4648,135.73,-172.50,-218.78
1293,1399572628,-0.9604,1.4785,0.4556,131.52,-176.04,-215.61
1294,1399577629,-0.9717,1.5015,0.4468,126.52,-179.21,-212.50
1295,1399582627,-0.9775,1.5293,0.4492,122.01,-182.38,-209.21
1296,1399587627,-0.9800,1.5498,0.4473,118.23,-185.18,-205.85
1297,1399592627,-0.9966,1.5791,0.4443,115.30,-187.93,-202.32
1298,1399598075,-1.0156,1.6064,0.4355,113.29,-190.61,-198.48
1299,1399602630,-1.0220,1.6270,0.4346,112.20,-193.11,-194.57
1300,1399607628,-1.0176,1.6416,0.4316,111.83,-195.55,-190.43
