# skilleye imu stream v1
# device=xiao_esp32c6 imu=mpu6050 addr=0x68
# rate_hz=200 accel_range_g=16 gyro_range_dps=2000 dlpf_hz=94
# units: accel in g, gyro in deg/s, t_us in microseconds since boot (monotonic)
# no shared clock with the camera -- tap the racket once before each take
# so both recordings share a spike to align on
seq,t_us,ax,ay,az,gx,gy,gz
0,1371342628,0.5366,0.7739,0.2749,-1.89,-14.57,-1.83
1,1371348363,0.5371,0.7998,0.2354,-5.55,-14.76,-1.52
2,1371352629,0.5469,0.8003,0.2344,-7.87,-14.82,-1.34
3,1371357628,0.5464,0.8018,0.2197,-10.49,-14.45,-1.10
4,1371362630,0.5405,0.7998,0.2275,-12.68,-14.33,-0.73
5,1371367629,0.5327,0.8037,0.2446,-14.33,-14.21,-0.18
6,1371372629,0.5176,0.8149,0.2476,-15.61,-14.21,0.43
7,1371377627,0.5020,0.8198,0.2485,-16.59,-14.39,0.98
8,1371382629,0.4956,0.8345,0.2603,-17.20,-14.76,1.59
9,1371387629,0.5088,0.8569,0.2822,-17.87,-15.30,2.13
10,1371392628,0.5234,0.8623,0.2905,-18.05,-16.04,2.44
11,1371397629,0.5371,0.8638,0.3120,-17.93,-16.65,2.80
12,1371402628,0.5464,0.8726,0.3213,-17.62,-17.07,3.17
13,1371407627,0.5381,0.8975,0.2949,-17.26,-17.56,3.66
14,1371412630,0.5127,0.8877,0.3242,-16.46,-18.29,4.45
15,1371417627,0.5024,0.8853,0.2944,-15.49,-18.60,5.30
16,1371422631,0.4927,0.8979,0.2783,-14.33,-19.09,6.71
17,1371427629,0.4678,0.9351,0.2788,-12.62,-20.24,7.87
18,1371432629,0.4473,0.9585,0.3013,-10.00,-21.52,8.72
19,1371437629,0.4512,0.9468,0.3555,-5.67,-23.48,9.09
20,1371442629,0.4839,0.9497,0.3579,-0.37,-24.45,9.63
21,1371447629,0.4917,0.9609,0.3535,5.49,-25.37,10.18
22,1371452629,0.4937,0.9531,0.3193,11.22,-26.28,10.98
23,1371457628,0.5049,0.9272,0.2671,16.65,-26.52,12.13
24,1371462627,0.5215,0.8975,0.2407,21.59,-26.34,13.90
25,1371467628,0.5474,0.8735,0.2334,26.22,-26.04,16.28
26,1371472629,0.5820,0.8403,0.2144,29.63,-25.73,18.96
27,1371477628,0.6177,0.8140,0.1880,31.40,-25.00,22.26
28,1371482629,0.6445,0.8071,0.1772,31.16,-23.78,25.61
29,1371487628,0.6694,0.8188,0.1440,28.35,-22.74,28.78
30,1371492629,0.6680,0.8457,0.0991,22.99,-22.13,31.65
31,1371497628,0.6660,0.8691,0.1328,15.55,-22.13,33.90
32,1371502629,0.6992,0.8843,0.1938,6.71,-22.07,35.61
33,1371507628,0.7593,0.8750,0.2217,-2.56,-21.28,37.01
34,1371512629,0.7612,0.8901,0.1572,-11.52,-19.51,38.60
35,1371517629,0.7041,0.8994,0.1294,-20.91,-19.21,40.00
36,1371522629,0.6812,0.8848,0.0957,-30.37,-18.54,41.10
37,1371527957,0.6709,0.8970,0.0981,-39.45,-17.62,41.89
38,1371532631,0.6523,0.9414,0.1362,-47.74,-17.68,42.26
39,1371537628,0.6279,0.9712,0.1230,-55.18,-19.51,41.59
40,1371542629,0.6333,0.9346,0.2153,-60.91,-21.28,40.30
41,1371547629,0.6499,0.9580,0.2671,-64.21,-23.35,38.35
42,1371552629,0.6597,1.0010,0.3037,-65.37,-26.34,35.49
43,1371557629,0.6768,0.9360,0.3311,-63.90,-28.48,31.89
44,1371562628,0.7183,0.8638,0.3423,-59.82,-29.39,29.02
45,1371567629,0.7529,1.0005,0.3521,-53.72,-28.23,25.61
46,1371572628,0.7124,0.8511,0.1841,-45.73,-25.73,21.65
47,1371577627,0.5859,0.7803,0.0771,-35.12,-23.84,19.82
48,1371582628,0.5146,0.6401,0.0601,-21.40,-22.74,19.88
49,1371587629,0.5103,0.6099,0.1372,-5.18,-21.59,21.65
50,1371592628,0.5630,0.7031,0.1973,10.91,-19.82,23.17
51,1371597629,0.6265,0.7446,0.1797,24.88,-18.23,23.23
52,1371602629,0.6602,0.7285,0.1890,35.37,-16.59,22.50
53,1371607807,0.6885,0.6924,0.1978,41.71,-15.00,21.46
54,1371612629,0.6826,0.6460,0.1914,43.90,-13.72,20.00
55,1371617628,0.6763,0.6123,0.1611,42.38,-12.80,18.35
56,1371622629,0.6699,0.6025,0.1606,37.62,-12.07,16.28
57,1371627629,0.6055,0.6445,0.1221,30.61,-11.71,13.84
58,1371632627,0.6772,0.5498,0.2637,22.99,-11.77,11.34
59,1371637628,0.7261,0.5366,0.2300,16.04,-12.38,9.57
60,1371642629,0.6719,0.5513,0.1807,9.45,-12.99,7.99
61,1371647738,0.5820,0.5684,0.2056,3.23,-13.78,6.40
62,1371652627,0.5366,0.5728,0.1987,-2.13,-14.57,4.76
63,1371657628,0.5376,0.5684,0.1738,-6.34,-15.06,3.11
64,1371662627,0.5420,0.5762,0.1860,-9.39,-15.61,1.28
65,1371667627,0.5601,0.5767,0.1846,-11.77,-15.98,-0.67
66,1371672631,0.5811,0.5679,0.1758,-13.11,-16.16,-2.93
67,1371677627,0.6055,0.5688,0.1733,-13.66,-16.22,-5.24
68,1371682629,0.6250,0.5791,0.1777,-13.41,-16.28,-7.56
69,1371687629,0.6230,0.5879,0.1807,-12.44,-16.22,-9.88
70,1371692628,0.5962,0.6001,0.1689,-11.28,-15.98,-11.89
71,1371697627,0.5884,0.6382,0.1533,-10.61,-15.67,-13.60
72,1371702629,0.5723,0.6631,0.1436,-10.61,-15.49,-15.12
73,1371707629,0.5625,0.6655,0.1250,-11.28,-15.30,-15.98
74,1371712628,0.5566,0.6958,0.1138,-12.07,-15.37,-16.34
75,1371717629,0.5405,0.7251,0.1147,-12.68,-15.24,-16.65
76,1371722630,0.5405,0.7500,0.1191,-12.50,-15.12,-16.71
77,1371727629,0.5537,0.7832,0.1274,-11.22,-15.06,-16.16
78,1371732629,0.5425,0.7993,0.1294,-9.39,-15.12,-15.43
79,1371737629,0.5298,0.8359,0.1309,-6.89,-15.18,-14.33
80,1371742628,0.5322,0.8428,0.1323,-3.66,-15.49,-13.11
81,1371747627,0.5278,0.8599,0.1367,0.49,-15.98,-11.59
82,1371752647,0.5195,0.8809,0.1421,5.61,-16.46,-9.76
83,1371757629,0.5371,0.9077,0.1455,11.71,-17.07,-7.99
84,1371762629,0.5537,0.9277,0.1377,18.29,-17.62,-6.04
85,1371767628,0.5698,0.9346,0.1353,25.06,-17.99,-4.15
86,1371772629,0.5825,0.9414,0.1279,31.40,-18.41,-2.07
87,1371777789,0.5977,0.9678,0.1299,36.83,-18.72,0.00
88,1371782630,0.6108,0.9673,0.1230,41.65,-19.02,2.07
89,1371787628,0.6099,0.9854,0.1353,46.16,-19.21,4.09
90,1371792628,0.5986,0.9893,0.1152,49.82,-19.15,6.10
91,1371797629,0.5894,0.9902,0.0986,51.95,-19.09,8.05
92,1371802628,0.6123,0.9824,0.1094,52.50,-19.39,9.82
93,1371807629,0.6406,0.9634,0.1006,51.65,-19.76,11.46
94,1371812629,0.6196,0.9429,0.0654,49.76,-20.00,13.17
95,1371817627,0.6299,0.9316,0.0854,46.71,-20.00,14.51
96,1371822628,0.6841,0.9316,0.0728,42.44,-20.18,15.67
97,1371827629,0.6797,0.9077,0.0596,37.01,-20.12,16.65
98,1371832629,0.6934,0.8745,0.0508,30.98,-20.37,17.62
99,1371837683,0.6592,0.8462,0.0317,24.76,-20.43,18.35
100,1371842628,0.6406,0.8198,0.0557,18.17,-20.49,18.90
101,1371847629,0.6265,0.7822,0.0483,11.34,-20.79,19.45
102,1371852633,0.6089,0.7471,0.0347,3.96,-20.61,19.63
103,1371858074,0.5854,0.7061,0.0405,-3.41,-20.61,19.63
104,1371862629,0.5703,0.6729,0.0342,-10.73,-20.67,19.45
105,1371867629,0.5605,0.6592,0.0225,-17.62,-20.73,19.02
106,1371872627,0.5361,0.6836,0.0264,-24.09,-20.67,18.48
107,1371877629,0.5181,0.6831,0.0532,-30.37,-20.67,17.74
108,1371882628,0.5479,0.7876,0.0508,-36.40,-20.61,17.20
109,1371888055,0.5830,0.6831,0.1265,-41.52,-20.30,16.65
110,1371892631,0.6709,0.6768,0.1899,-45.85,-20.06,17.13
111,1371897628,0.6787,0.7402,0.1318,-49.09,-19.63,16.71
112,1371902627,0.6655,0.7148,0.1289,-50.79,-19.09,16.04
113,1371907631,0.6533,0.6782,0.2104,-49.63,-18.90,15.61
114,1371912627,0.6367,0.6411,0.2012,-46.40,-18.96,15.00
115,1371917627,0.6177,0.6431,0.1548,-41.89,-18.54,14.02
116,1371922628,0.5879,0.6514,0.1484,-36.95,-18.17,13.17
117,1371927790,0.5679,0.6509,0.0977,-32.32,-17.32,12.44
118,1371932629,0.5596,0.6484,0.0088,-28.41,-16.28,11.71
119,1371937628,0.5669,0.6641,-0.0503,-24.76,-14.94,11.22
120,1371942631,0.5894,0.6895,-0.0820,-21.22,-13.11,10.79
121,1371947628,0.6362,0.7217,-0.1138,-16.95,-11.16,10.73
122,1371952629,0.6797,0.7422,-0.1021,-12.13,-8.90,11.10
123,1371957628,0.6973,0.7832,-0.0303,-6.83,-6.46,11.83
124,1371962630,0.7207,0.7935,-0.0269,-1.59,-3.72,12.56
125,1371967879,0.6968,0.8105,-0.0322,2.87,-1.10,13.48
126,1371972630,0.6763,0.8276,-0.0151,6.16,1.34,14.15
127,1371977628,0.6631,0.8384,-0.0156,7.80,3.90,14.57
128,1371982629,0.6670,0.8442,-0.0332,7.68,6.89,14.76
129,1371987627,0.6733,0.8262,-0.0459,6.04,9.63,14.63
130,1371992628,0.6699,0.8071,-0.0459,2.87,12.50,14.39
131,1371997628,0.6714,0.7778,-0.0229,-1.22,15.30,14.15
132,1372002627,0.6470,0.7661,-0.0103,-5.24,18.11,13.66
133,1372007628,0.7017,0.7661,0.0317,-9.21,21.40,13.29
134,1372012629,0.7368,0.7808,-0.0083,-13.29,24.57,12.62
135,1372017630,0.7275,0.7368,0.0190,-16.83,27.13,11.77
136,1372022627,0.7100,0.7524,0.0430,-20.18,30.00,11.10
137,1372027665,0.6841,0.7568,0.0586,-22.68,32.74,10.06
138,1372032627,0.6626,0.7231,0.0674,-23.54,35.12,9.15
139,1372037629,0.6421,0.7358,0.0610,-23.17,37.38,8.29
140,1372042631,0.6045,0.7720,0.0308,-21.28,38.96,7.62
141,1372047628,0.5977,0.7812,0.1714,-16.65,39.21,6.40
142,1372052629,0.5879,0.8232,0.0791,-10.30,40.43,5.37
143,1372057762,0.6406,0.8203,0.1313,-2.99,41.71,4.45
144,1372062630,0.6743,0.8184,0.1606,4.09,42.87,4.02
145,1372067629,0.6606,0.8198,0.1187,10.73,44.09,3.48
146,1372072629,0.6382,0.8032,0.0981,16.89,45.73,3.11
147,1372077630,0.6284,0.8052,0.1313,22.74,47.38,2.74
148,1372082629,0.6230,0.8052,0.1646,27.87,48.66,2.44
149,1372087627,0.5498,0.8491,0.1084,32.68,49.82,1.77
150,1372092629,0.5474,0.7837,0.1504,37.80,50.79,1.34
151,1372097630,0.5723,0.7510,0.1860,42.38,51.95,1.22
152,1372102629,0.5991,0.7197,0.1680,46.28,53.05,1.40
153,1372107683,0.6035,0.7061,0.1343,49.21,53.84,1.83
154,1372112629,0.6157,0.7090,0.1445,51.65,54.45,2.50
155,1372117631,0.6255,0.7212,0.1807,54.09,55.18,3.29
156,1372122629,0.6328,0.7310,0.1870,56.40,55.55,4.63
157,1372127627,0.6260,0.7432,0.1665,58.66,55.79,5.85
158,1372132629,0.6060,0.7725,0.1685,60.98,55.73,7.01
159,1372137629,0.5874,0.7974,0.1724,63.41,55.00,7.87
160,1372142629,0.5864,0.8188,0.1787,66.40,53.84,8.66
161,1372147627,0.5952,0.8320,0.1719,69.27,52.56,9.21
162,1372152629,0.6133,0.8438,0.1816,72.13,51.10,10.00
163,1372157628,0.6401,0.8486,0.1904,74.82,49.94,10.79
164,1372162629,0.6880,0.8491,0.1870,77.32,48.78,11.59
165,1372167629,0.7280,0.8408,0.1772,79.33,48.05,12.56
166,1372172629,0.7573,0.8345,0.1719,80.79,47.74,13.66
167,1372177629,0.7793,0.8267,0.1738,81.65,47.50,14.88
168,1372182628,0.7988,0.8267,0.1577,81.46,47.62,16.16
169,1372187630,0.8120,0.8306,0.1626,80.30,48.05,17.44
170,1372192627,0.8145,0.8398,0.1694,77.62,48.60,18.41
171,1372198032,0.8076,0.8530,0.1899,73.29,49.15,19.15
172,1372202631,0.7861,0.8623,0.1851,67.56,49.76,19.45
173,1372207627,0.7720,0.8701,0.2046,60.00,49.82,19.57
174,1372212627,0.7935,0.8906,0.2417,50.85,49.51,19.27
175,1372217629,0.8223,0.9111,0.2637,40.06,49.02,18.54
176,1372222628,0.8359,0.9136,0.2798,27.80,48.23,17.68
177,1372227629,0.8359,0.9116,0.2979,14.39,47.20,16.65
178,1372232628,0.8218,0.8955,0.2954,0.06,45.91,15.91
179,1372237627,0.8027,0.8774,0.2759,-14.09,44.63,15.49
180,1372242629,0.7842,0.8662,0.2720,-27.62,43.05,15.79
181,1372247629,0.7725,0.8633,0.2769,-39.45,41.40,16.52
182,1372252629,0.7656,0.8701,0.2881,-49.02,39.45,17.87
183,1372257629,0.7646,0.8853,0.2993,-56.34,37.50,19.70
184,1372262628,0.7568,0.9009,0.3037,-60.91,35.24,21.71
185,1372267629,0.7485,0.9019,0.3145,-63.17,32.74,24.09
186,1372272627,0.7290,0.9043,0.3291,-63.48,30.12,26.59
187,1372277629,0.7139,0.9023,0.3423,-62.32,27.07,29.27
188,1372282627,0.7041,0.8984,0.3667,-59.94,23.96,31.95
189,1372287629,0.7046,0.8994,0.3735,-56.59,20.98,34.57
190,1372292628,0.7065,0.9004,0.3735,-52.80,18.11,36.89
191,1372297627,0.6919,0.9004,0.3501,-48.72,15.24,38.90
192,1372302955,0.6836,0.8999,0.3569,-44.88,12.68,40.73
193,1372308148,0.6890,0.8838,0.3535,-40.43,9.63,42.62
194,1372312629,0.6899,0.8755,0.3589,-37.93,7.74,43.78
195,1372317629,0.6958,0.8628,0.3589,-34.94,5.49,44.63
196,1372322628,0.6978,0.8535,0.3481,-31.95,3.23,45.18
197,1372327627,0.6987,0.8516,0.3535,-29.15,0.61,45.06
198,1372332629,0.7007,0.8306,0.3916,-26.16,-2.26,44.21
199,1372337627,0.7051,0.7642,0.4160,-22.87,-5.12,43.05
200,1372342629,0.7119,0.7144,0.3970,-19.33,-7.26,42.32
201,1372347629,0.7075,0.7310,0.3491,-15.67,-9.33,41.52
202,1372352630,0.6772,0.7417,0.3105,-11.95,-11.46,40.61
203,1372357627,0.6641,0.7734,0.3208,-8.29,-13.54,38.72
204,1372362627,0.6841,0.7627,0.3247,-4.33,-15.30,36.28
205,1372367627,0.6924,0.7261,0.3135,-0.43,-16.46,33.72
206,1372372627,0.6782,0.7109,0.2783,3.23,-17.20,31.40
207,1372377627,0.6729,0.6870,0.2461,6.65,-18.05,28.78
208,1372382663,0.6851,0.6504,0.2402,10.12,-18.72,26.22
209,1372387629,0.6973,0.6299,0.2437,13.66,-19.21,23.54
210,1372392628,0.7090,0.6006,0.2437,17.38,-19.51,20.91
211,1372397629,0.7168,0.5630,0.2471,21.71,-19.57,18.54
212,1372402628,0.7246,0.5488,0.2490,26.83,-19.51,16.40
213,1372407630,0.6963,0.5020,0.2334,32.38,-19.02,14.45
214,1372412628,0.6572,0.5283,0.2432,38.17,-17.93,12.62
215,1372417629,0.6025,0.5361,0.2153,42.80,-15.98,10.55
216,1372422629,0.5806,0.5029,0.1274,46.34,-14.39,8.78
217,1372427627,0.5718,0.5088,0.1255,48.11,-12.99,7.13
218,1372432627,0.5688,0.5127,0.1626,48.29,-11.89,5.55
219,1372437939,0.5664,0.5210,0.1523,46.59,-10.98,3.96
220,1372442629,0.5864,0.5171,0.1558,43.17,-10.18,2.20
221,1372447629,0.6060,0.5186,0.1694,37.87,-9.63,0.73
222,1372452630,0.6118,0.5288,0.1597,31.65,-9.33,-0.79
223,1372457627,0.6133,0.5542,0.1445,24.82,-9.15,-2.20
224,1372462628,0.6089,0.5737,0.1289,17.93,-8.78,-3.78
225,1372467630,0.6050,0.5869,0.1191,11.83,-8.17,-4.82
226,1372472628,0.5796,0.5981,0.1279,7.13,-7.26,-5.73
227,1372477629,0.5737,0.6221,0.1104,3.41,-6.28,-6.22
228,1372482627,0.5459,0.6499,0.1094,0.30,-5.00,-6.83
229,1372487627,0.5176,0.6577,0.1055,-2.74,-3.60,-7.20
230,1372492846,0.5034,0.6650,0.0977,-5.85,-2.07,-7.38
231,1372497629,0.5039,0.6841,0.1040,-9.27,-0.79,-7.20
232,1372502629,0.5098,0.7080,0.1152,-12.44,0.18,-6.59
233,1372507629,0.5107,0.7295,0.1406,-14.88,1.10,-5.98
234,1372512628,0.5112,0.7441,0.1587,-15.91,1.77,-4.76
235,1372517628,0.5215,0.7588,0.1714,-15.24,2.13,-3.35
236,1372522629,0.5312,0.7607,0.1865,-12.93,2.50,-1.65
237,1372527629,0.5376,0.7666,0.1978,-8.96,2.56,0.30
238,1372532630,0.5449,0.7612,0.1968,-3.66,2.68,2.20
239,1372537627,0.5669,0.7505,0.2021,2.50,2.50,3.84
240,1372542629,0.5908,0.7427,0.2041,8.66,2.50,5.37
241,1372547629,0.6157,0.7290,0.2114,14.33,2.38,6.52
242,1372552629,0.6416,0.7173,0.2026,18.90,2.32,7.26
243,1372557644,0.6616,0.7080,0.2100,21.83,2.32,7.62
244,1372562627,0.6841,0.7095,0.2046,23.05,2.62,7.80
245,1372567627,0.6978,0.7080,0.2017,22.44,2.68,7.93
246,1372572627,0.6963,0.7192,0.2021,20.00,3.05,7.93
247,1372577629,0.6880,0.7314,0.2109,16.28,3.17,7.87
248,1372582627,0.6919,0.7446,0.2246,12.07,3.35,7.99
249,1372587631,0.6963,0.7598,0.2334,7.87,3.66,8.17
250,1372592628,0.6821,0.7832,0.2251,3.29,3.90,8.35
251,1372597629,0.6768,0.7939,0.2314,-1.34,4.27,8.60
252,1372602629,0.6714,0.8115,0.2241,-6.04,4.57,9.21
253,1372607629,0.6797,0.8311,0.2236,-10.73,5.00,9.76
254,1372612628,0.6924,0.8418,0.2358,-15.49,5.37,10.49
255,1372617629,0.7046,0.8608,0.2412,-19.82,5.55,11.16
256,1372622628,0.7266,0.8730,0.2524,-23.66,5.79,12.13
257,1372627629,0.7417,0.8940,0.2612,-26.46,5.98,13.11
258,1372632628,0.7554,0.9146,0.2798,-28.84,5.98,14.27
259,1372637629,0.7715,0.9321,0.2905,-30.49,5.73,15.43
260,1372642629,0.7773,0.9556,0.2939,-31.65,5.43,16.95
261,1372647629,0.7700,0.9692,0.3047,-32.01,5.00,18.60
262,1372652628,0.7749,0.9775,0.3091,-31.10,4.45,20.55
263,1372657629,0.7720,0.9746,0.3208,-28.78,3.72,22.56
264,1372662627,0.7754,0.9648,0.3164,-24.82,2.87,24.63
265,1372667629,0.7739,0.9487,0.3120,-19.57,2.26,26.77
266,1372672628,0.7642,0.9214,0.3013,-13.48,1.95,28.72
267,1372677629,0.7554,0.8970,0.2808,-7.13,1.59,30.49
268,1372682627,0.7466,0.8706,0.2681,-1.22,1.40,31.89
269,1372687627,0.7388,0.8350,0.2656,3.96,1.34,32.99
270,1372692629,0.7305,0.8018,0.2632,7.74,1.34,33.90
271,1372697629,0.7197,0.7690,0.2656,9.94,1.34,34.51
272,1372702628,0.7202,0.7495,0.2700,10.18,1.65,34.94
273,1372707629,0.7280,0.7158,0.2866,8.60,1.77,35.06
274,1372712628,0.7183,0.6948,0.2925,5.18,2.01,34.88
275,1372717630,0.7065,0.6714,0.3184,-0.43,1.83,34.63
276,1372722627,0.7056,0.6465,0.3286,-7.26,1.77,34.39
277,1372727627,0.7012,0.6157,0.3452,-15.12,1.04,33.90
278,1372732629,0.7041,0.5869,0.3604,-19.39,0.67,33.41
279,1372737636,0.7183,0.5498,0.3599,-22.93,0.18,32.99
280,1372742628,0.7271,0.5229,0.3594,-24.15,-0.43,32.26
281,1372747629,0.7344,0.4956,0.3555,-23.41,-0.85,31.40
282,1372752628,0.7510,0.4688,0.3501,-20.49,-1.34,30.12
283,1372757631,0.7686,0.4468,0.3530,-16.10,-1.65,28.48
284,1372762628,0.7832,0.4336,0.3433,-10.79,-1.65,26.52
285,1372767627,0.7900,0.4155,0.3394,-5.37,-1.52,24.33
286,1372772740,0.7949,0.3994,0.3311,-0.49,-1.22,21.83
287,1372777630,0.7983,0.3921,0.3242,3.11,-1.04,19.27
288,1372782629,0.7979,0.3911,0.3037,5.85,-0.67,16.46
289,1372787628,0.7944,0.4014,0.2930,7.68,-0.18,13.72
290,1372793024,0.7979,0.4150,0.2754,8.60,0.49,10.79
291,1372797629,0.7900,0.4346,0.2534,8.48,1.34,7.87
292,1372802628,0.7812,0.4570,0.2373,6.83,2.01,5.24
293,1372807627,0.7710,0.4775,0.2319,4.09,2.80,2.80
294,1372812629,0.7661,0.4985,0.2329,0.67,3.41,0.55
295,1372817629,0.7466,0.5249,0.2373,-2.99,3.96,-1.16
296,1372822628,0.7490,0.5527,0.2466,-6.04,4.33,-2.44
297,1372827629,0.7490,0.5781,0.2456,-8.29,4.82,-3.35
298,1372832628,0.7500,0.6060,0.2495,-9.45,5.00,-3.90
299,1372837629,0.7529,0.6333,0.2661,-9.88,5.06,-4.09
300,1372842628,0.7544,0.6558,0.2729,-9.45,5.24,-3.84
301,1372847631,0.7559,0.6777,0.2935,-8.84,4.94,-3.60
302,1372852745,0.7539,0.6875,0.2910,-8.41,4.70,-3.17
303,1372857727,0.7544,0.7007,0.3042,-7.68,4.63,-2.62
304,1372862630,0.7524,0.7080,0.2964,-7.26,4.45,-2.07
305,1372867627,0.7529,0.7188,0.2998,-6.77,4.21,-1.40
306,1372872627,0.7529,0.7349,0.2954,-6.34,4.09,-0.98
307,1372877627,0.7500,0.7383,0.2827,-6.28,4.15,-0.43
308,1372882627,0.7402,0.7402,0.2783,-6.89,4.33,0.24
309,1372887627,0.7290,0.7510,0.2690,-8.05,4.27,0.91
310,1372892627,0.7222,0.7627,0.2715,-9.51,4.45,1.83
311,1372897627,0.7178,0.7656,0.2690,-10.67,4.45,2.80
312,1372902627,0.7065,0.7705,0.2739,-11.52,4.57,4.02
313,1372907634,0.7070,0.7642,0.2700,-12.26,4.70,5.24
314,1372912629,0.7129,0.7554,0.2783,-12.56,4.63,6.40
315,1372917628,0.7148,0.7451,0.2842,-12.74,4.70,7.62
316,1372922627,0.7285,0.7266,0.2974,-12.87,4.51,8.84
317,1372927830,0.7363,0.7168,0.3018,-13.23,4.45,9.76
318,1372932628,0.7510,0.7026,0.3105,-13.54,4.21,10.61
319,1372937761,0.7549,0.6929,0.3154,-14.09,3.90,11.10
320,1372942632,0.7617,0.6787,0.3184,-15.18,3.41,11.46
321,1372947630,0.7617,0.6636,0.3159,-16.10,3.17,11.52
322,1372952629,0.7661,0.6514,0.3159,-17.68,2.87,11.40
323,1372957629,0.7744,0.6392,0.3218,-18.72,2.32,11.34
324,1372962628,0.7754,0.6309,0.3257,-19.15,1.77,11.10
325,1372967630,0.7808,0.6245,0.3335,-19.15,1.22,10.73
326,1372972628,0.7744,0.6177,0.3325,-18.35,0.61,10.30
327,1372977627,0.7729,0.6133,0.3340,-17.50,-0.06,10.00
328,1372982627,0.7632,0.6089,0.3384,-16.77,-0.43,9.57
329,1372987627,0.7549,0.6021,0.3374,-16.04,-1.10,9.15
330,1372992629,0.7505,0.5986,0.3389,-15.49,-1.71,8.66
331,1372997654,0.7495,0.5889,0.3442,-15.37,-2.26,8.29
332,1373002629,0.7427,0.5859,0.3438,-15.61,-2.80,7.80
333,1373007627,0.7446,0.5928,0.3467,-15.85,-3.35,7.44
334,1373012627,0.7627,0.5903,0.3428,-16.16,-3.78,6.83
335,1373017629,0.7744,0.5972,0.3423,-16.46,-3.96,6.16
336,1373022628,0.7798,0.6006,0.3335,-17.38,-3.96,5.37
337,1373027627,0.7964,0.6030,0.3345,-18.66,-3.90,4.51
338,1373032627,0.8081,0.6006,0.3257,-20.67,-3.48,3.72
339,1373037629,0.8071,0.6025,0.3188,-23.29,-3.05,2.80
340,1373042629,0.8164,0.6021,0.3105,-26.65,-2.50,1.95
341,1373047627,0.8374,0.6074,0.3213,-30.06,-1.95,0.91
342,1373052657,0.8433,0.6104,0.3350,-33.48,-1.10,-0.12
343,1373057628,0.8281,0.6006,0.3452,-37.01,-0.30,-1.10
344,1373062629,0.7979,0.5981,0.3354,-40.67,0.79,-2.07
345,1373067628,0.7964,0.6001,0.3467,-43.96,1.40,-2.99
346,1373072629,0.6528,0.6133,0.3120,-46.34,2.26,-3.90
347,1373077628,0.7808,0.5571,0.3408,-47.32,2.93,-4.70
348,1373082627,0.6528,0.7432,0.3857,-48.29,3.35,-5.37
349,1373087677,0.6919,0.6641,0.5083,-50.49,3.41,-6.59
350,1373092628,0.7075,0.5273,0.4126,-52.07,3.05,-7.56
351,1373097629,0.7090,0.4966,0.3789,-52.01,2.44,-8.54
352,1373102629,0.6938,0.5430,0.4185,-48.54,1.40,-9.88
353,1373107629,0.5264,0.5342,0.3174,-41.46,1.16,-11.04
354,1373112627,0.5322,0.5469,0.5483,-30.06,0.24,-12.20
355,1373117627,0.5601,0.5562,0.5347,-14.45,-2.13,-13.35
356,1373122631,0.5708,0.5742,0.4028,0.18,-2.74,-14.33
357,1373127628,0.5576,0.6001,0.5669,11.52,-4.63,-15.24
358,1373132798,0.4443,0.6265,0.4756,19.94,-6.83,-16.28
359,1373137629,0.4795,0.6157,0.4419,26.04,-8.84,-16.95
360,1373142629,0.4609,0.6392,0.5171,28.29,-11.77,-17.38
361,1373147629,0.3989,0.6538,0.4331,25.67,-14.39,-17.93
362,1373152628,0.3809,0.6562,0.4111,19.02,-16.52,-18.48
363,1373157629,0.3804,0.6665,0.4536,9.27,-19.09,-18.78
364,1373162628,0.3599,0.6802,0.4346,-1.04,-21.65,-18.72
365,1373167629,0.3149,0.7095,0.4131,-10.30,-23.90,-18.41
366,1373172629,0.3042,0.7134,0.4321,-17.38,-26.10,-17.74
367,1373177628,0.3086,0.7212,0.4136,-21.04,-28.11,-16.89
368,1373182962,0.3228,0.7290,0.3955,-20.55,-29.88,-15.85
369,1373187631,0.3276,0.7295,0.3950,-16.22,-31.52,-14.94
370,1373192629,0.3350,0.7148,0.3809,-8.29,-33.23,-13.78
371,1373197627,0.3740,0.6914,0.3555,2.13,-34.88,-12.80
372,1373202627,0.4194,0.6694,0.3472,13.78,-36.59,-12.13
373,1373207627,0.4653,0.6465,0.3330,25.12,-38.35,-12.07
374,1373213133,0.5234,0.6143,0.3169,36.59,-40.37,-12.74
375,1373217629,0.5674,0.5850,0.3003,42.26,-41.83,-13.54
376,1373222628,0.6113,0.5513,0.2817,47.20,-43.54,-15.18
377,1373227630,0.6514,0.5273,0.2686,49.63,-45.37,-17.44
378,1373232628,0.6938,0.5068,0.2588,50.24,-47.07,-20.18
379,1373237629,0.7310,0.4971,0.2500,49.82,-48.48,-23.48
380,1373242629,0.7622,0.4893,0.2471,48.90,-49.94,-27.13
381,1373247628,0.7983,0.4946,0.2373,47.99,-51.28,-31.04
382,1373252627,0.8140,0.4966,0.2363,47.32,-52.13,-35.12
383,1373257635,0.7949,0.5151,0.2305,46.59,-52.99,-38.90
384,1373262627,0.7759,0.5361,0.2290,45.43,-53.66,-42.56
385,1373267627,0.7539,0.5542,0.2168,44.33,-54.27,-45.67
386,1373272627,0.7446,0.5806,0.2192,43.60,-54.76,-48.35
387,1373277627,0.7324,0.5898,0.2197,44.09,-55.06,-50.67
388,1373282627,0.7207,0.6108,0.2207,45.61,-55.06,-52.38
389,1373287627,0.7144,0.6226,0.2261,47.74,-55.00,-53.72
390,1373292627,0.7192,0.6313,0.2202,49.82,-54.63,-54.88
391,1373297627,0.7329,0.6396,0.2158,51.22,-54.45,-55.85
392,1373302629,0.7578,0.6616,0.2012,52.20,-54.15,-56.83
393,1373307632,0.8027,0.6885,0.2026,52.56,-53.60,-57.80
394,1373312629,0.8403,0.7192,0.2007,51.95,-52.56,-58.78
395,1373317629,0.8638,0.7549,0.1821,50.12,-51.34,-59.63
396,1373322627,0.8823,0.8071,0.1724,46.77,-49.88,-60.06
397,1373327628,0.8901,0.8604,0.1533,42.38,-48.35,-60.18
398,1373332627,0.9087,0.9165,0.1470,37.44,-46.83,-59.70
399,1373337627,0.9189,0.9761,0.1455,32.50,-45.06,-58.78
400,1373342627,0.9043,1.0396,0.1333,27.07,-42.87,-56.65
401,1373347630,0.9023,1.0879,0.1328,24.02,-41.40,-54.57
402,1373352628,0.9170,1.1519,0.1357,21.28,-39.45,-51.77
403,1373357627,0.9370,1.2031,0.1343,19.09,-37.44,-48.11
404,1373362627,0.9419,1.2598,0.1338,17.07,-35.24,-44.09
405,1373367627,0.9575,1.3149,0.1245,14.57,-33.35,-39.15
406,1373372627,1.0059,1.3867,0.1226,11.52,-31.52,-33.84
407,1373377627,1.0498,1.4458,0.1123,7.68,-29.88,-28.05
408,1373382627,1.0913,1.5156,0.1035,3.17,-28.29,-21.59
409,1373387627,1.1143,1.5718,0.0879,-1.77,-26.89,-14.57
410,1373392627,1.1323,1.6436,0.0728,-6.10,-25.55,-7.07
411,1373397627,1.1494,1.7124,0.0703,-9.27,-24.39,1.04
412,1373402914,1.1650,1.7539,0.0864,-10.67,-23.41,9.70
413,1373407629,1.1431,1.8047,0.0776,-11.34,-22.38,18.90
414,1373412628,1.1279,1.8364,0.0771,-11.59,-21.71,28.66
415,1373417629,1.1152,1.8516,0.0747,-11.52,-21.16,38.96
416,1373422627,1.0874,1.8647,0.0806,-11.10,-21.04,49.51
417,1373427631,1.0630,1.8682,0.0854,-10.67,-20.91,60.06
418,1373432628,1.0493,1.8481,0.0869,-10.49,-21.10,70.67
419,1373437629,1.0342,1.8179,0.0864,-10.67,-21.46,81.16
420,1373442629,1.0068,1.7842,0.0977,-11.28,-21.95,91.52
421,1373447630,0.9741,1.7466,0.0981,-11.83,-22.74,101.83
422,1373452627,0.9355,1.7021,0.1035,-11.71,-23.48,111.83
423,1373457629,0.9136,1.6440,0.1108,-10.49,-24.45,121.40
424,1373462629,0.8931,1.5684,0.1157,-8.48,-25.43,130.61
425,1373467627,0.8848,1.4800,0.1196,-5.49,-26.28,139.15
426,1373472627,0.8828,1.3882,0.1235,-1.52,-27.56,146.89
427,1373477627,0.8896,1.2861,0.1265,3.54,-28.60,154.09
428,1373482627,0.8989,1.1968,0.1318,9.21,-29.45,160.37
429,1373487627,0.8877,1.1030,0.1348,14.63,-30.06,165.79
430,1373492627,0.8687,1.0073,0.1333,19.39,-30.67,170.55
431,1373497632,0.8677,0.9170,0.1294,23.29,-31.34,174.45
432,1373502628,0.8623,0.8340,0.1274,26.16,-31.83,177.44
433,1373507627,0.8750,0.7593,0.1226,27.38,-32.20,179.57
434,1373512627,0.8848,0.6743,0.1118,26.52,-32.32,180.85
435,1373517627,0.8706,0.5942,0.0986,23.54,-32.26,181.40
436,1373522627,0.8584,0.5117,0.0845,18.96,-32.32,181.46
437,1373527627,0.8467,0.4351,0.0791,14.27,-32.32,180.98
438,1373532628,0.8164,0.3701,0.0776,10.55,-32.01,179.88
439,1373537629,0.7812,0.3130,0.0674,7.62,-31.59,178.48
440,1373542630,0.7266,0.2422,0.0654,6.46,-31.16,176.40
441,1373547629,0.6484,0.1841,0.0596,7.26,-30.06,174.45
442,1373552628,0.6689,0.1265,0.0918,9.15,-28.90,172.01
443,1373557629,0.6558,0.0615,0.0752,10.49,-27.07,169.21
444,1373562628,0.6250,0.0117,0.0581,10.37,-25.67,165.98
445,1373567629,0.5898,-0.0459,0.0430,8.60,-24.33,162.62
446,1373572629,0.5693,-0.0991,0.0415,6.52,-23.11,158.66
447,1373577627,0.5664,-0.1323,0.0483,4.70,-21.65,154.45
448,1373582628,0.5693,-0.1860,0.0425,2.56,-19.82,149.57
449,1373587627,0.5454,-0.2354,0.0107,-0.91,-17.93,144.45
450,1373592627,0.5132,-0.2754,-0.0273,-6.28,-16.04,139.21
451,1373597631,0.5005,-0.3140,-0.0576,-12.20,-14.21,133.90
452,1373602628,0.4834,-0.3433,-0.0718,-17.20,-12.62,128.05
453,1373607627,0.4839,-0.3643,-0.0850,-20.18,-10.67,121.77
454,1373612627,0.4863,-0.4004,-0.1152,-20.85,-8.84,115.37
455,1373617629,0.4604,-0.4341,-0.1494,-19.63,-6.77,108.90
456,1373622629,0.4453,-0.4692,-0.1777,-16.59,-5.00,102.26
457,1373627629,0.4199,-0.5127,-0.1846,-11.59,-2.80,95.43
458,1373632629,0.3926,-0.5688,-0.1909,-4.94,-0.73,87.87
459,1373637632,0.3789,-0.6104,-0.1943,2.07,1.52,80.98
460,1373642627,0.3760,-0.6621,-0.1958,8.11,3.84,73.17
461,1373647627,0.3613,-0.7134,-0.1963,12.26,6.28,64.88
462,1373652627,0.3423,-0.7666,-0.1982,13.90,8.60,56.10
463,1373657627,0.3345,-0.8115,-0.1968,12.99,10.85,46.71
464,1373662627,0.3389,-0.8408,-0.1885,9.82,13.11,36.95
465,1373667628,0.3174,-0.8833,-0.1870,4.27,15.67,26.52
466,1373672629,0.2886,-0.9209,-0.1899,-2.74,18.23,16.04
467,1373677629,0.2744,-0.9521,-0.1816,-10.85,20.85,5.06
468,1373682627,0.2593,-0.9805,-0.1792,-19.21,23.84,-6.04
469,1373687629,0.2544,-0.9995,-0.1802,-27.62,27.01,-17.44
470,1373692628,0.2422,-1.0107,-0.1885,-35.30,30.18,-29.27
471,1373697629,0.2393,-1.0225,-0.1855,-41.65,33.41,-41.10
472,1373702630,0.2402,-1.0376,-0.1855,-45.06,36.89,-53.29
473,1373707629,0.2446,-1.0420,-0.1753,-45.24,40.43,-65.49
474,1373712629,0.2671,-1.0366,-0.1782,-42.80,44.15,-77.87
475,1373717629,0.2891,-1.0249,-0.1665,-37.80,47.99,-90.43
476,1373722629,0.2959,-1.0146,-0.1475,-29.15,52.50,-105.61
477,1373727629,0.3086,-1.0107,-0.1396,-22.20,55.43,-115.79
478,1373732628,0.3276,-0.9883,-0.1221,-12.68,59.15,-128.60
479,1373737628,0.3901,-0.9414,-0.1392,-2.32,62.56,-141.52
480,1373742629,0.4355,-0.8921,-0.1099,9.33,65.85,-154.76
481,1373747629,0.4160,-0.8735,-0.0757,23.54,68.96,-167.87
482,1373752629,0.4116,-0.8335,-0.0396,39.63,72.32,-180.73
483,1373757628,0.4360,-0.7646,-0.0083,55.61,75.24,-193.41
484,1373762629,0.5044,-0.6743,0.0205,69.27,77.74,-206.28
485,1373767629,0.5601,-0.5874,0.0498,78.60,79.33,-219.15
486,1373772627,0.5630,-0.5073,0.0703,82.87,80.12,-231.77
487,1373777631,0.5649,-0.4111,0.1064,82.32,80.37,-243.60
488,1373782628,0.5903,-0.2979,0.1416,77.32,79.76,-254.76
489,1373787629,0.6021,-0.1709,0.1670,68.17,78.66,-265.06
490,1373792629,0.5996,-0.0337,0.1724,55.55,77.44,-274.51
491,1373797629,0.6133,0.1260,0.1826,40.06,76.04,-282.80
492,1373802675,0.6270,0.2729,0.1895,23.48,74.63,-289.39
493,1373807629,0.5723,0.4204,0.1895,7.38,73.54,-293.96
494,1373812628,0.4995,0.6074,0.1860,-6.95,72.56,-296.16
495,1373817629,4.1826,12.9243,5.9707,-60.61,62.99,-254.27
496,1373822628,0.3291,12.4136,1.6924,-347.99,49.09,-70.43
497,1373827629,1.0083,-1.8818,-2.9180,-289.94,32.87,10.67
498,1373832977,1.3320,-3.4868,0.4727,-191.46,26.95,26.40
499,1373837631,1.2617,1.5586,0.7842,-142.32,21.52,38.23
500,1373842629,1.0117,4.0781,-1.6157,-85.43,47.26,33.05
501,1373847629,0.8618,2.2046,1.0137,-34.27,10.30,31.40
502,1373852629,0.9062,-0.1299,0.9692,9.15,29.57,35.61
503,1373857629,1.0146,-0.3184,-0.4531,49.82,21.89,40.98
504,1373862804,0.9492,0.9805,0.6870,83.54,19.51,43.96
505,1373867629,0.9146,1.8252,0.8599,106.71,21.46,45.43
506,1373872628,0.9429,1.5630,0.0605,118.29,17.56,47.62
507,1373877629,0.9189,0.9209,0.5239,119.15,13.54,51.52
508,1373882629,0.8979,0.7056,0.7930,110.85,13.05,56.04
509,1373887629,0.9229,1.0010,0.3359,97.38,10.18,60.30
510,1373892627,0.9160,1.3105,0.4712,81.04,6.83,64.21
511,1373897627,0.8940,1.3154,0.7012,63.66,5.73,68.48
512,1373902627,0.8774,1.1660,0.4883,47.32,3.54,73.48
513,1373907629,0.8477,1.0938,0.5010,33.48,0.91,79.21
514,1373912629,0.8164,1.1333,0.6426,22.07,-0.55,85.18
515,1373917627,0.7944,1.1934,0.5625,12.26,-2.07,90.91
516,1373922629,0.7788,1.1870,0.5312,2.50,-4.09,96.52
517,1373927628,0.7656,1.1108,0.6069,-7.99,-6.22,101.95
518,1373932629,0.7607,0.9966,0.5664,-17.99,-8.96,106.71
519,1373937629,0.8188,0.9297,0.5571,-26.28,-12.13,110.98
520,1373942629,0.8579,0.8711,0.6201,-31.77,-15.24,114.57
521,1373947629,0.8643,0.8101,0.6099,-35.12,-18.54,117.50
522,1373952630,0.8540,0.7393,0.5752,-36.89,-22.26,119.70
523,1373957629,0.8809,0.6670,0.5869,-36.46,-26.28,121.22
524,1373962627,0.9077,0.6343,0.5933,-33.29,-30.18,122.20
525,1373967629,0.9180,0.5923,0.5630,-28.41,-33.96,122.56
526,1373972628,0.9180,0.5518,0.5396,-23.23,-37.44,122.80
527,1373977629,0.9233,0.5098,0.5000,-18.78,-40.79,122.68
528,1373982628,0.9126,0.4609,0.4609,-15.12,-44.02,122.32
529,1373987629,0.8994,0.4092,0.4297,-12.07,-47.07,121.77
530,1373992629,0.8701,0.3628,0.4092,-9.21,-50.00,121.10
531,1373997629,0.8066,0.2983,0.3892,-5.55,-52.62,120.06
532,1374002755,0.7319,0.2090,0.3755,-0.61,-55.12,119.15
533,1374007629,0.6665,0.1343,0.3804,5.43,-57.50,118.17
534,1374012628,0.6577,0.0815,0.3931,12.20,-59.51,116.65
535,1374017629,0.6401,0.0029,0.3911,18.54,-61.34,114.70
536,1374022628,0.5815,-0.0508,0.3711,22.93,-63.23,112.50
537,1374027629,0.5649,-0.0898,0.3506,24.88,-64.88,109.70
538,1374032628,0.5894,-0.1167,0.3447,25.12,-67.74,106.28
539,1374037629,0.5952,-0.1416,0.3374,24.15,-69.82,102.26
540,1374042628,0.6001,-0.1646,0.3286,21.89,-71.46,97.74
541,1374047629,0.6084,-0.1670,0.2925,17.93,-72.99,92.62
542,1374052629,0.6475,-0.1509,0.2500,12.74,-74.33,87.62
543,1374057629,0.6348,-0.1606,0.2241,7.68,-75.30,82.07
544,1374062628,0.6084,-0.1587,0.1753,3.84,-75.79,76.71
545,1374067628,0.6396,-0.1572,0.1265,2.13,-76.04,71.34
546,1374072629,0.6470,-0.1523,0.0742,3.17,-75.98,65.98
547,1374077629,0.6519,-0.1719,0.0239,7.01,-75.24,60.73
548,1374082628,0.6431,-0.1846,-0.0347,13.11,-74.27,55.61
549,1374087629,0.6401,-0.2075,-0.0854,20.91,-73.11,50.43
550,1374092631,0.6436,-0.2461,-0.1265,30.00,-71.52,45.12
551,1374097628,0.6250,-0.2900,-0.1616,39.27,-69.39,39.51
552,1374102627,0.6050,-0.3467,-0.1846,47.50,-67.01,33.60
553,1374107629,0.5703,-0.4136,-0.2080,53.17,-64.33,27.13
554,1374112628,0.5469,-0.4824,-0.2417,55.37,-61.46,20.12
555,1374118054,0.5249,-0.5630,-0.2695,52.62,-58.11,10.91
556,1374122631,0.4858,-0.6240,-0.2778,47.93,-55.85,4.27
557,1374127628,0.4478,-0.7031,-0.3013,39.51,-52.68,-4.76
558,1374132627,0.4023,-0.7705,-0.3198,28.78,-49.57,-14.27
559,1374137629,0.3320,-0.8428,-0.3164,17.62,-45.91,-24.45
560,1374142629,0.2773,-0.9214,-0.3174,7.26,-42.01,-35.12
561,1374147629,0.2378,-0.9775,-0.3218,-0.79,-37.80,-46.34
562,1374152627,0.2212,-1.0415,-0.3120,-5.85,-33.48,-58.60
563,1374157627,0.2183,-1.1050,-0.3066,-7.38,-28.90,-71.52
564,1374162627,0.2134,-1.1631,-0.2886,-5.73,-23.96,-85.43
565,1374167627,0.2168,-1.2095,-0.2847,-2.07,-18.60,-99.94
566,1374172627,0.2397,-1.2393,-0.2861,2.13,-13.35,-115.37
567,1374177627,0.2778,-1.2554,-0.2925,5.79,-8.17,-131.59
568,1374182629,0.3110,-1.2471,-0.2959,8.54,-2.99,-148.48
569,1374187631,0.3364,-1.2300,-0.2979,10.43,2.07,-165.85
570,1374192630,0.3442,-1.1763,-0.3008,11.83,7.20,-183.17
571,1374197627,0.3579,-1.1108,-0.3047,12.93,12.62,-200.73
572,1374202935,0.3354,-1.0273,-0.3022,13.96,17.87,-217.87
573,1374207629,0.3018,-0.9331,-0.2954,15.00,23.23,-234.27
574,1374212628,0.2720,-0.8262,-0.2930,16.22,28.60,-249.82
575,1374217629,0.2422,-0.7017,-0.2773,17.99,34.02,-264.45
576,1374222629,0.2070,-0.5742,-0.2637,19.88,39.45,-278.05
577,1374227628,0.1592,-0.4277,-0.2466,21.28,44.76,-290.55
578,1374232629,0.1611,-0.2505,-0.2422,21.04,49.76,-302.07
579,1374237628,0.2031,-0.0620,-0.2305,17.93,54.88,-312.56
580,1374242629,0.2119,0.1235,-0.2354,11.16,59.76,-321.46
581,1374247628,0.0327,1.5405,-0.2017,1.59,64.39,-327.74
582,1374252630,1.2847,7.1050,-0.3770,-121.71,79.88,-204.70
583,1374257629,1.7949,2.8198,-0.5762,-199.27,32.74,-107.93
584,1374262627,1.2446,4.7344,1.4175,-228.29,38.29,-57.56
585,1374267627,1.2427,5.4707,0.6680,-229.51,44.27,-26.89
586,1374272627,1.1904,3.2808,-0.0605,-204.21,43.17,-10.73
587,1374277629,1.0957,1.0146,0.3784,-163.90,45.30,2.26
588,1374282629,0.9927,0.4453,-0.0234,-119.57,46.16,12.87
589,1374287629,0.9727,1.0952,-0.2212,-79.33,44.39,18.05
590,1374292629,0.9888,1.5518,0.2144,-48.05,44.09,18.96
591,1374297630,1.0127,1.2295,0.2012,-24.76,43.78,18.11
592,1374302629,0.9956,0.6699,0.0239,0.61,42.74,17.87
593,1374307629,0.9741,0.4624,0.0688,26.40,42.56,18.23
594,1374312627,0.9712,0.6768,0.0488,46.65,42.13,17.80
595,1374317627,0.9644,0.9180,0.0376,60.12,40.61,16.95
596,1374322843,0.9536,0.9043,0.1182,66.16,39.02,16.04
597,1374327629,0.9497,0.7231,0.1680,66.16,37.20,15.37
598,1374333024,0.9458,0.6743,0.1924,60.12,34.39,14.76
599,1374337629,0.9424,0.6284,0.2168,53.29,32.38,14.45
600,1374342627,0.9541,0.6953,0.2446,42.50,30.12,13.84
601,1374347627,0.9639,0.7119,0.2646,30.00,27.44,13.11
602,1374352628,0.9404,0.6729,0.2930,16.59,25.06,12.80
603,1374357629,0.8789,0.6289,0.3193,2.99,22.74,12.99
604,1374362631,0.8374,0.6294,0.3354,-10.73,20.43,13.41
605,1374367628,0.8247,0.6377,0.3394,-24.39,18.23,14.21
606,1374372627,0.8076,0.6421,0.3545,-37.62,15.79,15.06
607,1374377627,0.7734,0.6284,0.3633,-50.37,13.48,15.91
608,1374382629,0.7261,0.6172,0.3550,-61.89,10.98,16.71
609,1374387765,0.7104,0.5874,0.3467,-70.98,8.48,17.32
610,1374392629,0.7310,0.5625,0.3516,-76.46,5.91,18.05
611,1374397628,0.7344,0.5435,0.3550,-77.68,3.35,18.54
612,1374402629,0.7241,0.5166,0.3594,-74.70,1.10,19.02
613,1374407628,0.7168,0.4863,0.3643,-68.17,-0.98,19.15
614,1374412627,0.7109,0.4570,0.3682,-59.33,-2.99,19.21
615,1374417864,0.7046,0.4277,0.3550,-48.78,-5.00,19.09
616,1374422629,0.6978,0.4043,0.3452,-37.26,-6.95,18.72
617,1374427627,0.6948,0.3691,0.3413,-25.49,-8.84,18.17
618,1374432627,0.6934,0.3403,0.3364,-13.60,-10.91,17.38
619,1374437855,0.6948,0.3066,0.3330,-2.07,-12.56,16.52
620,1374442629,0.7026,0.2749,0.3394,8.48,-13.96,15.18
621,1374447631,0.7017,0.2607,0.3433,17.44,-15.37,13.60
622,1374452629,0.7168,0.2402,0.3428,23.96,-16.77,11.65
623,1374457628,0.7534,0.2134,0.3276,27.87,-18.05,9.33
624,1374462631,0.7832,0.2036,0.3330,28.66,-19.57,6.65
625,1374467628,0.8013,0.2148,0.3345,26.71,-20.79,3.72
626,1374472629,0.7876,0.2305,0.3179,22.20,-22.32,0.55
627,1374477633,0.7588,0.2251,0.3101,15.55,-23.72,-2.80
628,1374482629,0.7456,0.2222,0.2979,7.62,-25.30,-6.28
629,1374487628,0.7505,0.2173,0.2949,-0.73,-26.95,-9.57
630,1374492629,0.7588,0.2300,0.2866,-9.02,-28.54,-12.74
631,1374497629,0.7510,0.2397,0.2856,-16.40,-29.57,-15.91
632,1374502739,0.7363,0.2539,0.2744,-22.68,-30.67,-19.09
633,1374507629,0.7310,0.2769,0.2661,-27.62,-31.46,-22.20
634,1374512629,0.7251,0.2886,0.2524,-30.91,-32.01,-25.30
635,1374517629,0.7275,0.3018,0.2427,-32.44,-32.44,-28.29
636,1374522627,0.7290,0.3135,0.2319,-32.56,-32.74,-30.98
637,1374527629,0.7144,0.3247,0.2153,-31.28,-32.56,-33.41
638,1374532628,0.6953,0.3345,0.2012,-28.78,-31.95,-35.67
639,1374537630,0.6846,0.3457,0.1924,-25.43,-31.46,-37.80
640,1374542629,0.6787,0.3530,0.1851,-21.65,-30.49,-39.94
641,1374547628,0.6987,0.3613,0.1753,-17.74,-29.45,-41.83
642,1374552629,0.7231,0.3784,0.1733,-14.33,-28.41,-43.84
643,1374557628,0.7437,0.4009,0.1680,-11.52,-27.07,-45.85
644,1374562627,0.7485,0.4233,0.1792,-9.94,-25.67,-47.87
645,1374567627,0.7075,0.4517,0.1782,-9.39,-24.27,-49.82
646,1374572629,0.6743,0.4707,0.1704,-10.18,-22.87,-51.77
647,1374577629,0.6699,0.4927,0.1670,-12.07,-21.46,-53.54
648,1374582629,0.7036,0.5283,0.1523,-15.24,-20.06,-55.12
649,1374587629,0.7051,0.5449,0.1460,-19.51,-18.48,-56.77
650,1374592629,0.6992,0.5664,0.1338,-24.27,-16.95,-58.05
651,1374597629,0.6875,0.5854,0.1226,-29.09,-15.43,-58.78
652,1374602629,0.6694,0.5981,0.1108,-33.90,-13.72,-59.15
653,1374607628,0.6973,0.6533,0.1001,-38.84,-12.07,-59.70
654,1374612629,0.6973,0.6763,0.1128,-42.62,-10.43,-59.88
655,1374617628,0.6777,0.6943,0.1167,-44.63,-8.35,-59.51
656,1374622627,0.6807,0.7163,0.0879,-45.12,-6.77,-58.78
657,1374627627,0.6641,0.7393,0.0728,-44.45,-5.18,-57.56
658,1374632627,0.6406,0.7803,0.0557,-42.74,-3.60,-56.34
659,1374637627,0.6255,0.8213,0.0381,-39.39,-2.20,-54.94
660,1374642627,0.6143,0.8364,0.0508,-34.02,-0.79,-53.17
661,1374647629,0.6304,0.8638,0.0581,-26.83,0.73,-50.85
662,1374652629,0.6455,0.9106,0.0566,-18.48,2.38,-48.23
663,1374657631,0.6343,0.9448,0.0630,-9.94,3.96,-45.37
664,1374662629,0.6279,0.9868,0.0610,-1.65,5.43,-42.13
665,1374667629,0.6216,1.0220,0.0693,5.61,6.52,-38.72
666,1374672627,0.6099,1.0469,0.0815,11.59,7.62,-35.12
667,1374677627,0.6016,1.0864,0.0938,16.04,8.60,-31.34
668,1374682627,0.6304,1.2065,0.1699,17.68,9.39,-27.13
669,1374687627,0.6807,1.2642,0.1963,16.10,10.30,-22.56
670,1374692627,0.7373,1.2549,0.1284,12.56,10.91,-18.29
671,1374697627,0.7539,1.2642,0.2114,5.91,11.65,-14.21
672,1374702629,0.7627,1.2539,0.3242,-5.00,12.32,-9.88
673,1374707629,0.8682,1.2271,0.2354,-19.33,12.74,-4.94
674,1374712627,0.9136,1.2046,0.1821,-34.15,12.74,-0.79
675,1374717627,0.8740,1.1714,0.3735,-50.06,13.29,2.74
676,1374722627,0.8530,1.1079,0.4028,-67.20,13.17,6.04
677,1374727627,0.9268,1.0591,0.3335,-83.90,12.44,9.57
678,1374732627,0.9272,1.0659,0.4009,-97.99,11.65,12.80
679,1374737629,0.8794,1.0566,0.4502,-108.96,11.22,15.61
680,1374742629,0.8765,0.9966,0.4209,-116.04,9.88,18.48
681,1374747628,0.9141,0.9375,0.4434,-118.90,8.60,21.22
682,1374752627,0.9233,0.8999,0.4512,-118.41,7.50,23.48
683,1374757629,0.9077,0.8428,0.4512,-115.12,6.40,25.24
684,1374762628,0.8994,0.8140,0.4258,-109.09,5.37,26.71
685,1374767627,0.8960,0.7993,0.4390,-101.22,4.57,27.87
686,1374772629,0.8853,0.7793,0.4678,-90.43,3.78,28.72
687,1374777629,0.8862,0.7593,0.4814,-83.17,3.66,28.90
688,1374782628,0.8955,0.7197,0.4985,-74.33,3.29,28.84
689,1374787629,0.8975,0.6763,0.4956,-66.22,3.35,28.54
690,1374792629,0.9219,0.2769,0.6113,-58.48,3.41,27.87
691,1374797627,0.8467,0.4556,0.3989,-46.46,2.99,27.50
692,1374802627,0.7769,0.6484,0.5811,-34.02,2.50,24.57
693,1374807631,0.7393,0.5503,0.5977,-22.93,3.66,22.74
694,1374812629,0.6978,0.4639,0.4561,-13.29,3.05,21.34
695,1374817628,0.7124,0.4717,0.4756,-6.34,2.62,20.30
696,1374822629,0.7393,0.5293,0.4722,-0.43,3.17,19.76
697,1374827628,0.7749,0.6055,0.3550,5.30,3.84,19.82
698,1374832629,0.8447,0.7578,0.3398,9.21,3.84,20.61
699,1374837627,0.8281,0.7524,0.4355,12.80,5.06,22.38
700,1374842627,0.8687,0.8027,0.3325,17.13,6.28,24.45
701,1374847758,0.9038,0.8340,0.3047,20.91,7.07,26.16
702,1374852647,0.9023,0.8477,0.4023,22.07,8.66,28.11
703,1374858341,0.8599,0.8423,0.3901,19.09,10.30,30.06
704,1374862630,0.8301,0.7280,0.3789,15.12,11.10,31.16
705,1374867628,0.7871,0.7290,0.3511,9.33,11.46,32.13
706,1374872629,0.8101,0.6860,0.4272,1.77,12.44,33.35
707,1374877629,0.8149,0.7227,0.3794,-6.52,13.48,34.45
708,1374882629,0.7949,0.6987,0.2808,-13.66,13.60,35.43
709,1374887628,0.8213,0.7520,0.3037,-20.37,13.29,35.37
710,1374892627,0.8003,0.6030,0.4971,-26.83,14.09,34.15
711,1374897995,0.7744,0.5000,0.5078,-34.09,15.55,33.48
712,1374902628,0.7329,0.5093,0.3438,-38.29,16.16,33.35
713,1374907628,0.7129,0.5752,0.3853,-42.74,17.13,32.93
714,1374912627,0.6982,0.5610,0.4111,-46.52,18.48,32.44
715,1374917627,0.6582,0.5415,0.2949,-50.49,19.76,31.95
716,1374922627,0.6309,0.5044,0.2446,-54.88,20.61,31.40
717,1374927627,0.6089,0.4897,0.2471,-59.09,21.46,30.79
718,1374932627,0.5425,0.5103,0.1694,-62.07,22.20,30.06
719,1374937627,0.5132,0.5562,0.1929,-64.15,22.50,29.39
720,1374942627,0.5132,0.6372,0.2173,-65.85,22.80,28.48
721,1374947629,0.4336,0.7095,0.3218,-66.16,24.09,27.62
722,1374952628,0.4272,0.7266,0.3535,-64.39,25.85,26.77
723,1374957629,0.5493,0.6792,0.2651,-58.90,27.38,26.83
724,1374962628,0.6040,0.6553,0.2632,-51.16,28.90,27.13
725,1374967628,0.5942,0.6602,0.3481,-44.21,30.30,27.62
726,1374972627,0.4912,0.7339,0.3765,-40.55,31.04,27.13
727,1374977631,0.5967,0.5728,0.5244,-39.76,31.89,25.98
728,1374982628,0.8252,0.5112,0.5186,-39.88,33.41,25.49
729,1374987629,0.8594,0.5049,0.4805,-40.61,34.57,25.24
730,1374992628,0.7998,0.5249,0.4380,-41.59,35.24,25.12
731,1374997629,0.7432,0.5674,0.4199,-42.56,35.79,24.76
732,1375002629,0.7012,0.5781,0.4351,-42.56,36.22,23.90
733,1375008154,0.6001,0.5977,0.4453,-41.28,36.65,21.95
734,1375012630,0.5493,0.6680,0.3940,-39.51,35.79,19.39
735,1375017627,0.4897,0.6401,0.4331,-36.95,33.29,14.57
736,1375022627,0.4419,0.5117,0.5171,-33.60,30.06,9.21
737,1375027627,0.4629,0.3721,0.6133,-28.84,26.77,4.82
738,1375032629,0.4800,0.3281,0.6475,-22.32,24.82,1.83
739,1375037951,0.4561,0.3838,0.6187,-11.52,24.09,-1.04
740,1375042629,0.4116,0.4277,0.6050,-3.41,24.21,-2.68
741,1375047629,0.3438,0.4448,0.5664,6.71,25.12,-4.82
742,1375052629,0.2905,0.4536,0.5146,15.55,25.98,-7.01
743,1375057629,0.2881,0.4858,0.4565,22.99,26.34,-9.39
744,1375062629,0.3618,0.4668,0.4951,28.96,26.65,-12.01
745,1375067629,0.4482,0.4771,0.4688,33.41,26.46,-15.06
746,1375072628,0.4819,0.4531,0.4072,35.85,25.24,-18.41
747,1375077682,0.4727,0.4131,0.3975,36.34,23.29,-21.59
748,1375082631,0.4312,0.3862,0.3813,35.85,20.73,-24.33
749,1375087628,0.3789,0.3813,0.3608,35.18,17.99,-26.83
750,1375092629,0.3228,0.3950,0.3779,34.76,15.37,-29.21
751,1375097629,0.2808,0.4272,0.3818,34.88,13.17,-31.65
752,1375102630,0.2559,0.4541,0.3735,35.73,11.65,-34.33
753,1375107627,0.2461,0.4697,0.3740,37.56,10.24,-37.20
754,1375112629,0.2466,0.4697,0.3940,40.06,9.39,-40.24
755,1375117629,0.2290,0.4565,0.3882,43.48,8.84,-43.11
756,1375122629,0.2012,0.4517,0.3804,46.46,8.35,-46.10
757,1375128289,0.1523,0.4277,0.3364,49.15,8.11,-49.09
758,1375132630,0.1187,0.4424,0.3159,50.79,8.17,-51.10
759,1375137631,0.1279,0.4736,0.3145,51.22,8.66,-52.93
760,1375142628,0.1113,0.4341,0.3262,50.06,9.51,-55.30
761,1375147627,0.1099,0.4326,0.3164,47.62,10.98,-57.62
762,1375152627,0.1270,0.4487,0.3164,43.72,12.44,-60.12
763,1375157629,0.1484,0.4814,0.3193,38.35,14.02,-62.44
764,1375162627,0.1602,0.5220,0.3125,32.01,15.91,-65.24
765,1375167629,0.1743,0.5571,0.3271,25.18,18.17,-68.17
766,1375172631,0.1895,0.5669,0.3369,19.39,20.49,-71.22
767,1375177810,0.1968,0.5586,0.3311,14.39,23.11,-74.02
768,1375182629,0.1719,0.5581,0.3149,11.10,25.61,-76.46
769,1375187628,0.1499,0.5762,0.3408,8.72,28.11,-78.60
770,1375192628,0.1226,0.6040,0.3325,7.38,30.73,-81.22
771,1375197631,0.1143,0.5996,0.3315,7.99,33.54,-84.27
772,1375202629,0.1060,0.5718,0.3481,10.30,36.16,-87.07
773,1375207629,0.0923,0.5635,0.3540,13.96,38.72,-89.94
774,1375212629,0.0806,0.5669,0.3457,18.48,41.28,-92.74
775,1375217629,0.0591,0.5742,0.3379,23.23,43.54,-95.73
776,1375222629,0.0361,0.5776,0.3286,27.62,45.55,-98.72
777,1375227629,0.0117,0.5874,0.3262,31.77,47.26,-102.01
778,1375232628,-0.0039,0.6064,0.3325,35.18,48.35,-105.67
779,1375237627,0.0088,0.6069,0.3350,38.35,49.09,-109.45
780,1375242631,0.0215,0.5923,0.3340,41.34,49.09,-113.05
781,1375247629,-0.0044,0.6201,0.3374,44.33,48.66,-116.10
782,1375252628,-0.0166,0.6626,0.3359,46.89,48.17,-119.27
783,1375257629,0.0034,0.6953,0.3438,48.84,47.44,-122.38
784,1375262628,0.0166,0.7231,0.3491,50.00,46.77,-125.37
785,1375267629,0.0093,0.7427,0.3442,50.12,46.40,-128.41
786,1375272628,0.0146,0.7617,0.3398,49.33,46.10,-131.34
787,1375277630,0.0210,0.7822,0.3188,47.74,45.79,-134.27
788,1375282629,0.0151,0.8149,0.3101,45.85,45.73,-137.01
789,1375287733,0.0127,0.8340,0.2979,43.96,45.79,-139.82
790,1375292629,-0.0015,0.8530,0.2925,42.99,45.98,-142.38
791,1375297629,-0.0273,0.8589,0.2915,42.80,46.28,-144.88
792,1375302628,-0.0640,0.8569,0.2954,43.66,46.77,-147.20
793,1375307629,-0.1050,0.8535,0.2998,45.67,46.89,-149.57
794,1375312628,-0.1362,0.8599,0.2886,48.60,47.32,-151.83
795,1375317627,-0.1621,0.8706,0.2783,52.07,47.32,-154.02
796,1375322627,-0.1714,0.8823,0.2822,55.67,47.50,-156.16
797,1375327702,-0.1870,0.8784,0.2930,58.84,47.56,-158.35
798,1375332628,-0.1987,0.9023,0.2783,60.79,47.38,-160.49
799,1375337628,-0.1919,0.9204,0.3169,61.83,47.32,-162.80
800,1375342629,-0.1758,0.9419,0.2983,62.50,47.13,-164.94
801,1375347628,-0.1704,0.9727,0.3330,62.07,46.77,-166.95
802,1375352627,-0.1616,1.0181,0.3496,60.24,46.40,-168.90
803,1375357629,-0.1514,1.0381,0.3955,57.20,45.98,-170.98
804,1375362627,-0.1367,1.0576,0.4033,52.07,45.24,-172.74
805,1375367627,-0.1440,1.1108,0.3071,47.26,44.63,-174.02
806,1375372669,-0.1641,1.1631,0.3613,43.17,44.15,-174.88
807,1375377629,-0.1782,1.1797,0.3867,39.15,43.66,-175.43
808,1375382628,-0.2085,1.1836,0.3423,35.73,42.99,-175.79
809,1375387631,-0.2505,1.1919,0.3418,33.11,42.01,-176.16
810,1375392628,-0.2754,1.1836,0.3545,31.40,41.34,-176.59
811,1375397629,-0.3120,1.1797,0.3262,31.28,40.43,-177.07
812,1375402628,-0.3433,1.1914,0.3164,32.56,39.45,-177.44
813,1375407629,-0.3828,1.2085,0.3208,35.61,38.84,-177.68
814,1375412629,-0.4121,1.2178,0.3032,39.82,38.41,-177.56
815,1375417627,-0.4180,1.2388,0.3052,44.57,38.05,-177.32
816,1375422629,-0.4214,1.2632,0.3071,48.72,37.99,-176.83
817,1375427629,-0.4360,1.2954,0.3022,51.52,37.99,-176.22
818,1375432628,-0.4434,1.3228,0.2944,52.44,38.11,-175.37
819,1375437629,-0.4297,1.3608,0.2852,51.22,38.17,-174.33
820,1375442629,-0.4238,1.4004,0.2837,48.11,38.23,-173.11
821,1375447627,-0.4111,1.4351,0.2910,43.11,38.72,-171.65
822,1375452627,-0.4023,1.4937,0.2739,36.65,38.90,-169.82
823,1375457629,-0.4014,1.5469,0.2769,29.51,39.09,-167.62
824,1375462628,-0.3872,1.5977,0.3071,22.56,39.39,-165.06
825,1375467629,-0.3721,1.6440,0.3120,16.46,39.45,-162.01
826,1375472628,-0.3687,1.6753,0.3359,12.13,39.33,-158.66
827,1375477628,-0.3706,1.6963,0.3638,9.39,39.09,-155.18
828,1375482629,-0.3755,1.7114,0.3765,8.78,38.66,-151.52
829,1375487716,-0.3892,1.7002,0.3901,10.12,37.93,-147.87
830,1375492629,-0.3740,1.6733,0.4409,13.35,36.89,-144.21
831,1375497627,-0.3599,1.6445,0.5161,18.96,35.91,-140.73
832,1375502629,-0.3447,1.6196,0.7041,28.96,34.15,-137.32
833,1375507629,-0.3105,1.5815,0.8657,46.46,30.43,-134.39
834,1375512628,-0.3101,1.5459,0.8706,66.52,24.82,-132.07
835,1375517629,-0.3594,1.4912,0.7627,79.27,18.54,-130.12
836,1375522629,-0.4023,1.4487,0.6753,82.20,12.99,-128.48
837,1375527629,-0.4634,1.3872,0.6333,78.60,8.17,-126.95
838,1375532628,-0.4990,1.3081,0.6431,70.12,4.33,-125.61
839,1375537627,-0.5493,1.2441,0.6616,58.23,1.04,-124.63
840,1375542631,-0.5869,1.1958,0.6768,45.06,-2.44,-124.33
841,1375547628,-0.6069,1.1685,0.7202,32.44,-6.10,-124.45
842,1375552629,-0.6172,1.1499,0.7246,21.65,-9.63,-124.88
843,1375557629,-0.6196,1.1440,0.7021,13.35,-13.60,-125.55
844,1375562628,-0.6206,1.1533,0.7007,7.74,-17.38,-126.04
845,1375567627,-0.6230,1.1631,0.6865,4.82,-21.34,-126.83
846,1375572629,-0.5967,1.1729,0.6895,4.09,-25.12,-127.62
847,1375577627,-0.6611,1.1782,0.6812,6.16,-28.96,-128.35
848,1375582628,-0.6406,1.1841,0.7061,10.61,-32.68,-129.15
849,1375587629,-0.7280,1.1807,0.6597,16.34,-36.71,-129.63
850,1375592631,-0.7720,1.1548,0.6372,23.60,-40.67,-130.00
851,1375597628,-0.7812,1.1538,0.6299,31.95,-44.57,-130.24
852,1375602627,-0.7803,1.1533,0.6006,41.22,-48.90,-130.61
853,1375607627,-0.7793,1.1606,0.6177,50.18,-53.23,-130.91
854,1375612627,-0.7769,1.1592,0.6265,58.11,-57.80,-131.16
855,1375617830,-0.7896,1.1572,0.6255,64.09,-62.62,-131.46
856,1375622681,-0.8013,1.1694,0.6577,67.68,-67.44,-131.77
857,1375627629,-0.7959,1.1841,0.6855,68.60,-71.95,-132.07
858,1375632631,-0.7866,1.1885,0.6650,66.71,-77.13,-132.07
859,1375637628,-0.8252,1.1973,0.7236,62.56,-81.46,-132.13
860,1375642656,-0.8418,1.1973,0.7422,55.24,-85.49,-132.13
861,1375647627,-0.8652,1.1992,0.7188,45.55,-89.88,-132.32
862,1375652627,-0.8882,1.2158,0.7485,34.45,-93.84,-132.68
863,1375657627,-0.8950,1.2251,0.7524,23.05,-97.68,-133.05
864,1375662629,-0.8770,1.2339,0.7192,12.93,-101.65,-133.90
865,1375667629,-0.8584,1.2549,0.7266,5.43,-105.73,-134.45
866,1375672628,-0.8613,1.2734,0.7290,2.13,-109.45,-134.82
867,1375677627,-0.8682,1.2832,0.7124,3.41,-113.60,-134.94
868,1375682627,-0.8706,1.3027,0.7129,8.41,-117.50,-134.57
869,1375687629,-0.8989,1.3179,0.7285,15.79,-121.59,-133.72
870,1375692628,-0.9277,1.3955,0.8159,25.73,-125.98,-132.38
871,1375697629,-0.9258,1.3940,0.6968,46.77,-132.44,-129.76
872,1375702628,-0.9180,1.3687,0.8652,59.70,-138.84,-127.01
873,1375707663,-0.9146,1.3271,0.7393,57.62,-143.66,-125.00
874,1375712628,-0.9053,1.3472,0.6353,52.44,-149.39,-123.05
875,1375717629,-0.9116,1.3384,0.8271,45.98,-153.54,-121.22
876,1375722627,-0.9282,1.3120,0.8115,37.99,-157.01,-119.33
877,1375727629,-0.9404,1.3193,0.7207,28.54,-161.28,-117.68
878,1375732627,-0.9258,1.3359,0.8257,17.93,-164.82,-116.16
879,1375737627,-0.9097,1.3369,0.8374,6.40,-167.74,-114.94
880,1375742627,-0.8984,1.3550,0.7812,-5.85,-170.61,-113.90
881,1375747627,-0.9253,1.3711,0.8301,-18.05,-173.29,-113.17
882,1375752627,-0.9238,1.3770,0.8350,-29.21,-175.55,-112.74
883,1375757627,-0.8726,1.3726,0.7910,-36.83,-177.99,-112.38
884,1375762627,-0.8325,1.3896,0.7993,-39.63,-180.24,-112.13
885,1375767627,-0.7969,1.4009,0.8081,-37.50,-182.32,-111.71
886,1375772627,-0.7798,1.4121,0.7803,-31.52,-184.09,-110.98
887,1375777627,-0.7734,1.4224,0.7676,-23.35,-185.98,-110.00
888,1375782627,-0.7729,1.4146,0.7773,-14.33,-187.87,-108.29
889,1375787631,-0.7896,1.4150,0.7646,-6.40,-189.94,-106.10
890,1375792628,-0.8125,1.4194,0.7651,-0.85,-191.89,-103.48
891,1375797631,-0.8633,1.4287,0.7896,1.28,-194.33,-100.00
892,1375802629,-0.8999,1.4370,0.7969,-0.37,-195.91,-97.32
893,1375807628,-0.9463,1.4385,0.8208,-5.91,-197.87,-94.27
894,1375812627,-0.9883,1.4443,0.8457,-14.94,-199.70,-91.16
895,1375817629,-1.0166,1.4438,0.8613,-26.59,-201.46,-88.05
896,1375822627,-1.0117,1.4351,0.8682,-40.49,-203.35,-85.43
897,1375827901,-0.9722,1.4194,0.8638,-59.02,-205.61,-82.38
898,1375832630,-0.9561,1.4053,0.8672,-71.34,-207.26,-80.73
899,1375837627,-0.9160,1.3931,0.8550,-84.94,-209.27,-79.02
900,1375842627,-0.8521,1.3516,0.8608,-95.30,-211.46,-77.62
901,1375847628,-0.8457,1.3818,0.8760,-100.85,-213.35,-76.04
902,1375852629,-0.8281,1.3599,0.8613,-101.89,-215.49,-75.00
903,1375857627,-0.7944,1.3276,0.8828,-98.78,-217.44,-74.09
904,1375862627,-0.7817,1.3193,0.8652,-92.56,-219.51,-73.05
905,1375867737,-0.7402,1.3101,0.8628,-84.09,-221.46,-72.26
906,1375872629,-0.7271,1.3022,0.8755,-74.57,-223.54,-71.40
907,1375877629,-0.7568,1.2861,0.8931,-65.24,-225.49,-70.55
908,1375882628,-0.7837,1.2671,0.8926,-57.32,-227.56,-69.57
909,1375887629,-0.7686,1.2520,0.9043,-51.71,-229.33,-68.48
910,1375892629,-0.7593,1.2344,0.9302,-49.09,-231.22,-67.13
911,1375897630,-0.7871,1.2241,0.9614,-49.63,-232.74,-65.85
912,1375902629,-0.8228,1.2095,0.9795,-53.96,-234.21,-64.27
913,1375907627,-0.8306,1.1899,0.9902,-62.62,-235.73,-62.62
914,1375912627,-0.7783,1.1836,0.9800,-75.67,-237.07,-61.28
915,1375917627,-0.7300,1.1831,0.9707,-91.89,-238.66,-60.00
916,1375922627,-0.7363,1.1978,0.9668,-109.33,-239.94,-59.09
917,1375927627,-0.7529,1.2227,0.9512,-126.04,-241.28,-58.54
918,1375932627,-0.7363,1.2432,0.9150,-139.45,-242.38,-58.29
919,1375937627,-0.7041,1.2573,0.9019,-147.32,-243.41,-58.17
920,1375942627,-0.6978,1.2642,0.8857,-147.93,-244.09,-57.87
921,1375947627,-0.7129,1.2832,0.8740,-141.40,-244.39,-57.20
922,1375952627,-0.7280,1.2939,0.8623,-129.51,-244.70,-56.22
923,1375957627,-0.7334,1.2905,0.8628,-114.63,-244.63,-54.57
924,1375962627,-0.7397,1.2749,0.8691,-99.09,-244.76,-52.44
925,1375967631,-0.7588,1.2549,0.8750,-85.24,-244.70,-49.76
926,1375972631,-0.7715,1.2319,0.8906,-75.43,-244.76,-46.95
927,1375977628,-0.7700,1.1938,0.8965,-71.16,-244.63,-43.84
928,1375982629,-0.7441,1.1519,0.8960,-73.17,-245.00,-40.73
929,1375987628,-0.7217,1.1143,0.8979,-80.91,-245.24,-37.68
930,1375992629,-0.7070,1.0845,0.8989,-93.05,-245.43,-34.76
931,1375997629,-0.6904,1.0635,0.9058,-107.62,-245.67,-32.20
932,1376002631,-0.6631,1.0498,0.8838,-123.48,-245.67,-30.06
933,1376007628,-0.6279,1.0488,0.8599,-139.15,-245.67,-28.35
934,1376012629,-0.6196,1.0356,0.8462,-152.38,-245.73,-27.26
935,1376017628,-0.6284,1.0488,0.8276,-160.79,-245.24,-26.52
936,1376022629,-0.6099,1.0405,0.8115,-163.78,-244.51,-26.10
937,1376027627,-0.5786,1.0332,0.7896,-161.46,-243.54,-25.79
938,1376032627,-0.5732,1.0181,0.7837,-155.00,-242.32,-25.55
939,1376037627,-0.5708,0.9941,0.7686,-145.98,-240.98,-25.30
940,1376042629,-0.5552,0.9663,0.7720,-135.85,-239.33,-24.88
941,1376047627,-0.5405,0.9336,0.7686,-126.28,-237.80,-24.21
942,1376052627,-0.5249,0.8960,0.7700,-118.72,-236.22,-23.54
943,1376057627,-0.5024,0.8535,0.7798,-113.72,-234.70,-22.68
944,1376062631,-0.4946,0.8145,0.7856,-111.59,-233.05,-21.65
945,1376067627,-0.5181,0.7861,0.7856,-112.44,-231.34,-20.61
946,1376072627,-0.5205,0.7578,0.7915,-115.49,-229.57,-19.63
947,1376077627,-0.4927,0.7300,0.8052,-120.30,-227.74,-18.60
948,1376082629,-0.4624,0.7085,0.7993,-126.65,-225.98,-17.93
949,1376087627,-0.4399,0.6885,0.8008,-134.27,-224.02,-17.56
950,1376092738,-0.4126,0.6704,0.8130,-144.02,-222.01,-17.50
951,1376097629,-0.3984,0.6533,0.8159,-150.85,-220.61,-17.68
952,1376102629,-0.4067,0.6323,0.8252,-159.27,-218.84,-18.17
953,1376107627,-0.4165,0.6279,0.8086,-167.62,-217.26,-19.15
954,1376112627,-0.3838,0.6074,0.7861,-174.76,-216.16,-20.43
955,1376117627,-0.3315,0.5894,0.7734,-178.96,-215.30,-21.95
956,1376122627,-0.2847,0.5693,0.7500,-179.09,-214.76,-23.72
957,1376127629,-0.2378,0.5464,0.7402,-174.88,-214.45,-25.43
958,1376132632,-0.2056,0.5273,0.7148,-167.13,-214.27,-27.20
959,1376137628,-0.1626,0.5083,0.6938,-156.89,-214.57,-28.72
960,1376142627,-0.1299,0.4907,0.6812,-145.06,-215.06,-30.18
961,1376147627,-0.1128,0.4692,0.6763,-132.50,-215.55,-31.22
962,1376152627,-0.1187,0.4512,0.6777,-119.88,-215.73,-31.77
963,1376157627,-0.1123,0.4341,0.6772,-108.60,-215.91,-31.89
964,1376162627,-0.1006,0.4028,0.6846,-99.76,-215.67,-31.65
965,1376167627,-0.1201,0.3833,0.7021,-94.09,-215.12,-30.91
966,1376172627,-0.1445,0.3672,0.7148,-92.13,-214.02,-29.94
967,1376177627,-0.1602,0.3584,0.7334,-94.27,-212.56,-28.78
968,1376182627,-0.1475,0.3447,0.7368,-100.61,-210.79,-27.74
969,1376187627,-0.1353,0.3311,0.7363,-110.67,-209.02,-26.83
970,1376192628,-0.1338,0.3306,0.7329,-123.41,-207.13,-26.10
971,1376198274,-0.1372,0.3315,0.7168,-140.55,-205.00,-25.79
972,1376202632,-0.0996,0.3184,0.6992,-153.17,-203.41,-25.91
973,1376207629,-0.0547,0.3135,0.6831,-160.67,-202.20,-26.22
974,1376212628,-0.0093,0.3081,0.6816,-165.18,-200.91,-26.95
975,1376217920,0.0488,0.2886,0.6670,-162.68,-199.39,-27.93
976,1376222629,0.0815,0.2788,0.6543,-156.89,-198.48,-28.60
977,1376227628,0.1313,0.2690,0.6367,-146.40,-197.50,-29.39
978,1376232629,0.1758,0.2637,0.6289,-133.84,-196.71,-30.24
979,1376237661,0.2065,0.2441,0.6162,-120.79,-196.22,-31.16
980,1376242627,0.2334,0.2456,0.6030,-109.02,-195.79,-31.89
981,1376247627,0.2671,0.2373,0.6060,-100.24,-195.49,-32.44
982,1376252627,0.3022,0.2217,0.6025,-95.18,-195.30,-32.93
983,1376257627,0.3013,0.2144,0.5938,-94.57,-194.82,-32.93
984,1376262629,0.2896,0.2104,0.5869,-98.23,-194.27,-32.93
985,1376267627,0.2778,0.2080,0.5879,-105.49,-193.60,-32.44
986,1376272627,0.2588,0.1982,0.5952,-115.06,-192.68,-31.89
987,1376277627,0.2539,0.1938,0.6025,-126.52,-191.40,-31.16
988,1376282627,0.2280,0.2041,0.5894,-139.02,-189.88,-30.43
989,1376287627,0.2031,0.2041,0.5708,-150.98,-188.54,-30.00
990,1376292627,0.2280,0.1797,0.5430,-159.33,-187.44,-29.76
991,1376297627,0.2866,0.1675,0.5503,-161.77,-186.16,-29.70
992,1376303191,0.3545,0.1475,0.5571,-156.89,-184.57,-29.76
993,1376307628,0.3931,0.1328,0.5444,-148.23,-182.93,-29.94
994,1376312631,0.4277,0.1221,0.5264,-140.12,-181.89,-30.37
995,1376317628,0.4907,0.1021,0.5039,-130.30,-181.04,-30.91
996,1376322629,0.5552,0.0918,0.4995,-122.13,-180.49,-31.77
997,1376327629,0.5952,0.0859,0.4956,-116.28,-180.06,-32.74
998,1376332630,0.6133,0.0830,0.4956,-113.78,-179.88,-33.78
999,1376337629,0.6201,0.0850,0.4805,-115.43,-180.00,-34.82
1000,1376342629,0.6265,0.0845,0.4756,-120.79,-180.24,-35.91
1001,1376347629,0.6201,0.0903,0.4595,-129.02,-180.61,-36.95
1002,1376352629,0.6172,0.0898,0.4634,-138.66,-181.10,-37.99
1003,1376357629,0.5830,0.1084,0.4624,-148.54,-181.34,-38.72
1004,1376362629,0.5552,0.1323,0.4453,-157.99,-181.77,-39.88
1005,1376367696,0.5669,0.1362,0.3926,-165.98,-182.62,-41.28
1006,1376372629,0.6226,0.1309,0.3721,-170.49,-183.66,-42.80
1007,1376377629,0.6499,0.1440,0.3735,-170.24,-184.94,-44.21
1008,1376382629,0.6265,0.1606,0.3628,-165.79,-186.22,-45.67
1009,1376387629,0.6260,0.1558,0.3413,-157.80,-187.74,-47.01
1010,1376392629,0.6787,0.1719,0.3296,-147.87,-189.57,-48.17
1011,1376397629,0.7168,0.1743,0.3242,-136.95,-191.52,-49.33
1012,1376402629,0.6978,0.1870,0.3296,-126.71,-193.96,-50.06
1013,1376407627,0.6636,0.1934,0.3237,-118.78,-196.65,-50.67
1014,1376412630,0.6514,0.1948,0.3149,-114.27,-199.82,-50.98
1015,1376417629,0.6436,0.1943,0.3066,-113.60,-203.05,-51.40
1016,1376422629,0.6484,0.1934,0.2920,-116.77,-206.59,-51.77
1017,1376427627,0.6494,0.2031,0.2764,-122.56,-210.30,-52.32
1018,1376432629,0.6509,0.2148,0.2710,-129.45,-214.09,-53.05
1019,1376437628,0.6152,0.2280,0.2520,-136.16,-217.62,-53.72
1020,1376442627,0.5771,0.2524,0.2148,-141.40,-221.28,-54.57
1021,1376447627,0.5894,0.2803,0.1953,-143.41,-224.88,-55.73
1022,1376453168,0.6475,0.3047,0.1821,-140.18,-229.15,-56.89
1023,1376457629,0.6362,0.3208,0.1797,-134.76,-231.52,-57.50
1024,1376462627,0.5811,0.3521,0.1689,-125.37,-234.51,-57.87
1025,1376467631,0.5684,0.3657,0.1519,-115.18,-237.13,-57.93
1026,1376472627,0.5781,0.3823,0.1323,-105.98,-240.12,-57.87
1027,1376477627,0.5742,0.3926,0.1089,-98.60,-243.05,-57.62
1028,1376482629,0.5547,0.3916,0.0894,-93.84,-246.10,-57.56
1029,1376487629,0.5283,0.3857,0.0439,-91.65,-249.21,-57.20
1030,1376492628,0.5190,0.3745,0.0010,-91.59,-252.87,-56.71
1031,1376497627,0.5415,0.3652,-0.0220,-92.68,-256.28,-56.52
1032,1376502628,0.5381,0.3721,-0.0356,-93.78,-259.82,-56.34
1033,1376507629,0.5078,0.3857,-0.0444,-94.88,-263.29,-56.34
1034,1376512627,0.4937,0.4023,-0.0737,-95.79,-266.71,-56.40
1035,1376517627,0.5068,0.4390,-0.0962,-96.52,-269.94,-56.77
1036,1376522627,0.5234,0.4839,-0.0972,-96.83,-272.87,-57.26
1037,1376527627,0.4985,0.5151,-0.1030,-97.07,-275.61,-57.62
1038,1376532629,0.4180,0.5503,-0.1304,-97.20,-278.23,-57.56
1039,1376537627,0.3755,0.5830,-0.1714,-96.95,-281.16,-57.32
1040,1376542627,0.4224,0.6167,-0.1802,-94.45,-283.96,-56.77
1041,1376547627,0.4434,0.6455,-0.1758,-88.96,-286.59,-56.16
1042,1376552627,0.3779,0.6616,-0.1860,-80.43,-288.90,-55.18
1043,1376557627,0.3306,0.6499,-0.2217,-69.45,-291.16,-53.90
1044,1376562629,0.3613,0.6372,-0.2490,-56.77,-293.72,-52.56
1045,1376567627,0.4116,0.6187,-0.2505,-43.17,-296.46,-51.40
1046,1376572627,0.4390,0.6152,-0.2588,-29.88,-299.27,-50.61
1047,1376577627,0.4854,0.6079,-0.2559,-18.54,-301.95,-50.24
1048,1376582627,0.4668,0.5723,-0.2861,-10.85,-304.39,-49.82
1049,1376587630,0.4058,0.5728,-0.3208,-7.62,-306.83,-49.21
1050,1376592631,0.4038,0.6128,-0.3232,-8.96,-309.21,-48.90
1051,1376597629,0.3794,0.6235,-0.3643,-15.06,-311.10,-48.60
1052,1376602629,0.2598,0.6309,-0.4233,-24.88,-312.62,-47.99
1053,1376607628,0.1533,0.6309,-0.4814,-37.13,-314.21,-46.77
1054,1376612629,0.0913,0.6309,-0.5312,-49.88,-315.85,-45.30
1055,1376617627,0.0610,0.6387,-0.5649,-61.22,-317.44,-43.48
1056,1376622629,0.0415,0.6528,-0.5972,-69.57,-319.09,-41.65
1057,1376627628,0.0029,0.6548,-0.6387,-73.54,-320.67,-39.94
1058,1376632627,0.0024,0.6353,-0.6724,-72.01,-322.38,-38.48
1059,1376637627,0.0615,0.6050,-0.6772,-64.51,-324.33,-37.26
1060,1376642627,0.0757,0.5615,-0.6802,-49.27,-326.71,-36.28
1061,1376647631,0.0693,0.5278,-0.6938,-37.13,-328.60,-36.04
1062,1376652628,0.0972,0.4893,-0.7041,-18.35,-332.26,-36.40
1063,1376657629,0.1802,0.4897,-0.7153,-7.07,-334.70,-37.56
1064,1376662627,0.2476,0.4966,-0.6904,4.39,-337.62,-39.57
1065,1376667627,0.2422,0.4912,-0.6797,11.89,-340.00,-42.13
1066,1376672627,0.1860,0.4854,-0.7026,15.30,-341.77,-44.94
1067,1376677627,0.1221,0.4883,-0.7427,13.90,-343.23,-47.56
1068,1376682627,0.0396,0.4731,-0.7925,8.41,-344.63,-49.88
1069,1376687627,-0.0347,0.4609,-0.8320,0.12,-345.73,-51.77
1070,1376692629,-0.0903,0.4629,-0.8535,-9.82,-346.59,-53.54
1071,1376697628,-0.1294,0.4595,-0.8594,-20.12,-346.89,-55.12
1072,1376702627,-0.1753,0.4668,-0.8804,-32.68,-347.13,-57.74
1073,1376707629,-0.1997,0.4502,-0.8940,-40.43,-347.13,-59.82
1074,1376712628,-0.2437,0.4336,-0.9082,-49.21,-347.38,-62.56
1075,1376717706,-0.3184,0.4121,-0.9390,-57.93,-348.05,-66.59
1076,1376722629,-0.3750,0.3916,-0.9702,-62.74,-348.90,-70.98
1077,1376727628,-0.3892,0.3613,-0.9785,-64.15,-350.06,-75.00
1078,1376732627,-0.4072,0.3262,-0.9810,-62.01,-351.77,-82.01
1079,1376737629,-0.4688,0.2837,-1.0068,-56.77,-353.23,-88.60
1080,1376742631,-0.5464,0.2080,-1.0391,-49.02,-355.24,-95.61
1081,1376747628,-0.6284,0.1323,-1.0493,-39.09,-357.80,-102.68
1082,1376752627,-0.6948,0.1040,-1.0522,-30.24,-360.24,-108.48
1083,1376757627,-0.7656,0.0732,-1.0308,-19.09,-363.05,-116.04
1084,1376762922,-0.8447,0.0342,-1.0132,-7.32,-366.52,-125.91
1085,1376767629,-0.9351,-0.0029,-1.0005,-0.30,-369.45,-134.33
1086,1376772627,-1.0254,-0.0181,-0.9844,2.80,-372.56,-143.11
1087,1376777629,-1.0947,-0.0522,-0.9790,1.10,-375.30,-152.44
1088,1376782629,-1.1553,-0.0732,-0.9844,-5.24,-378.23,-162.38
1089,1376787628,-1.2246,-0.0801,-0.9893,-16.04,-381.52,-173.05
1090,1376792627,-1.2700,-0.0825,-0.9771,-27.07,-383.41,-182.20
1091,1376797627,-1.3218,-0.0679,-0.9653,-42.44,-388.05,-194.76
1092,1376802627,-1.4082,-0.0537,-0.9502,-61.65,-392.26,-211.28
1093,1376807627,-1.5093,-0.0439,-0.9570,-73.90,-395.06,-223.11
1094,1376812628,-1.6748,-0.0391,-0.9741,-87.68,-398.35,-238.41
1095,1376817629,-1.8872,-0.0273,-0.9800,-100.49,-402.44,-257.68
1096,1376822629,-2.0869,-0.0039,-0.9805,-107.56,-405.12,-274.76
1097,1376827628,-2.2139,-0.0259,-1.0010,-110.24,-407.20,-289.27
1098,1376832629,-2.3521,-0.0811,-1.0200,-108.60,-409.57,-311.34
1099,1376837628,-2.4956,-0.1104,-1.0205,-102.68,-410.91,-330.00
1100,1376842767,-2.6172,-0.1387,-1.0332,-93.78,-411.95,-349.39
1101,1376847629,-2.7017,-0.1699,-1.0566,-83.60,-412.32,-369.45
1102,1376852628,-2.7876,-0.1948,-1.0684,-73.84,-412.74,-390.12
1103,1376857629,-2.9092,-0.1963,-1.0786,-66.65,-412.80,-411.65
1104,1376862631,-3.0303,-0.1460,-1.0776,-63.78,-412.50,-434.57
1105,1376867628,-3.1265,-0.0752,-1.0889,-66.89,-412.20,-459.33
1106,1376872627,-3.2812,0.0078,-1.0801,-76.59,-410.79,-486.34
1107,1376877629,-3.5400,0.1016,-1.0820,-93.05,-407.87,-515.30
1108,1376882629,-3.8994,0.1875,-1.1074,-116.10,-403.05,-546.10
1109,1376887628,-4.4214,0.2817,-1.1519,-144.15,-395.85,-578.96
1110,1376892627,-5.0327,0.4150,-1.2549,-175.55,-385.43,-613.60
1111,1376897629,-5.5435,0.4302,-1.3438,-209.76,-372.13,-649.88
1112,1376902629,-6.1904,0.4077,-1.5645,-244.70,-355.18,-686.59
1113,1376907629,-6.9863,0.4624,-1.7949,-277.80,-333.54,-723.41
1114,1376912627,-7.4858,0.4565,-1.9229,-299.82,-313.84,-752.80
1115,1376917627,-8.2329,0.6265,-2.2217,-322.44,-277.99,-797.44
1116,1376922627,-8.6909,0.6860,-2.4072,-327.13,-248.96,-828.11
1117,1376927629,-9.1558,0.7432,-2.6426,-312.01,-199.57,-874.09
1118,1376932810,-9.5381,0.8228,-2.7964,-280.12,-152.87,-912.32
1119,1376937629,-9.7778,0.8765,-3.0835,-235.49,-100.43,-951.16
1120,1376942628,-10.0693,0.9512,-3.2910,-184.82,-45.79,-990.85
1121,1376947629,-10.3955,1.0459,-3.4658,-137.80,10.06,-1031.71
1122,1376952629,-10.7661,1.1460,-3.6460,-104.15,68.17,-1074.21
1123,1376957628,-11.1567,1.3057,-3.7251,-89.09,127.13,-1118.60
1124,1376962627,-11.6279,1.5029,-3.7373,-92.87,188.11,-1164.33
1125,1376967627,-12.1333,1.7271,-3.7964,-106.71,239.33,-1200.73
1126,1376972627,-13.0781,2.0396,-3.7637,-140.00,320.49,-1252.80
1127,1376977630,-13.9839,2.2983,-3.6636,-171.89,391.65,-1291.52
1128,1376982628,-15.1206,2.6079,-3.5562,-197.07,465.79,-1324.21
1129,1376987627,-15.9326,2.8765,-3.4629,-209.27,541.95,-1350.18
1130,1376992629,-15.9980,3.2412,-3.2251,-204.70,616.28,-1369.82
1131,1376997628,-16.0000,3.6411,-3.0103,-181.22,687.87,-1384.33
1132,1377002631,-16.0000,3.9355,-2.8188,-143.84,753.17,-1395.37
1133,1377007629,-16.0000,4.4663,-2.4351,-97.74,812.20,-1405.55
1134,1377012628,-16.0000,4.8950,-1.9136,-45.98,864.39,-1416.16
1135,1377017629,-16.0000,5.3862,-1.7290,-0.98,909.21,-1424.39
1136,1377022630,-16.0000,6.0713,-1.3174,28.54,944.39,-1429.57
1137,1377027629,-16.0000,6.5151,-0.4209,40.85,975.98,-1427.80
1138,1377032628,-16.0000,7.3789,-0.1675,34.09,1001.10,-1413.54
1139,1377037627,-16.0000,8.1108,0.4678,19.39,1015.06,-1393.48
1140,1377042627,-16.0000,8.9331,1.6626,-7.56,1037.62,-1346.52
1141,1377047629,-16.0000,9.2603,2.2266,-37.68,1057.26,-1292.99
1142,1377052631,-16.0000,9.9253,2.3618,-85.37,1076.28,-1227.50
1143,1377057628,-16.0000,10.0278,3.1440,-159.51,1100.43,-1148.41
1144,1377062629,-16.0000,9.6372,3.6997,-270.00,1132.99,-1054.82
1145,1377067628,-16.0000,9.4111,3.8936,-421.65,1173.84,-946.65
1146,1377072629,-16.0000,9.1519,4.2998,-607.74,1224.15,-823.05
1147,1377077628,-16.0000,8.5718,4.6860,-822.87,1282.62,-682.87
1148,1377082627,-16.0000,7.7163,5.0269,-1055.43,1342.01,-524.82
1149,1377087629,-16.0000,6.8008,5.5303,-1289.45,1395.24,-348.66
1150,1377092627,-16.0000,5.8604,5.9297,-1499.76,1423.84,-155.67
1151,1377097692,-15.9995,4.8154,6.0723,-1678.11,1439.76,49.88
1152,1377102629,-15.4551,3.7510,5.8770,-1820.49,1412.74,256.40
1153,1377107628,-14.6855,2.7993,5.4688,-1928.60,1340.55,454.70
1154,1377112973,-13.5747,1.9043,5.1182,-1998.05,1228.66,635.67
1155,1377117629,-12.4043,1.1938,4.5098,-1998.05,1081.89,790.67
1156,1377122630,-11.5776,0.9326,4.2573,-1997.74,912.38,911.65
1157,1377127630,-10.8716,0.7588,3.6523,-1885.85,735.73,993.96
1158,1377132627,-10.2363,0.7944,2.9409,-1706.34,566.04,1036.10
1159,1377137627,-9.9541,0.9307,2.2339,-1475.85,412.74,1042.74
1160,1377142629,-9.9517,1.0830,1.6548,-1214.27,283.72,1021.77
1161,1377147629,-10.1870,1.0713,1.3857,-943.17,180.73,982.93
1162,1377152629,-10.2466,0.3203,1.4297,-685.37,100.91,936.22
1163,1377157628,-10.1445,0.1548,1.0464,-457.74,38.78,891.04
1164,1377162644,-9.7627,-0.2275,0.6504,-282.87,-7.62,846.89
1165,1377167628,-9.5889,-0.5186,0.9600,-156.34,-52.99,807.68
1166,1377172627,-9.2915,-0.9077,0.8892,-67.01,-92.93,773.05
1167,1377177627,-9.0073,-1.0874,0.8389,-4.15,-126.89,743.17
1168,1377182629,-8.7378,-1.1245,1.0386,41.59,-156.95,717.07
1169,1377187629,-8.4893,-1.1885,1.1064,78.72,-181.95,694.45
1170,1377192630,-8.3340,-1.2578,1.1240,111.28,-200.67,675.12
1171,1377197629,-7.9033,-1.2383,1.2402,134.02,-215.98,656.83
1172,1377202629,-7.3315,-1.2544,1.2983,143.05,-226.83,638.48
1173,1377207628,-6.9634,-1.1777,1.3784,136.16,-232.93,619.15
1174,1377212629,-6.7354,-1.0176,1.5352,114.09,-236.40,597.87
1175,1377217628,-6.4727,-0.8428,1.5713,77.99,-237.50,574.15
1176,1377222630,-6.0576,-0.9155,0.1147,30.55,-235.55,547.50
1177,1377227629,-5.8862,-1.9004,0.5337,-32.74,-235.12,510.61
1178,1377232629,-5.4961,-0.4189,1.2910,-100.00,-226.40,467.38
1179,1377237628,-4.9502,-1.2593,1.5591,-133.23,-225.06,425.79
1180,1377242629,-4.4629,-0.6323,1.6406,-138.96,-228.23,388.54
1181,1377247628,-3.9771,-0.1650,1.2339,-137.68,-224.76,356.59
1182,1377252629,-3.6328,0.2866,1.1294,-123.29,-216.22,326.46
1183,1377257628,-3.3589,0.4575,1.2388,-96.52,-209.70,298.17
1184,1377262629,-3.1802,0.3657,1.0562,-63.05,-202.56,273.48
1185,1377267628,-3.1118,0.2544,0.8511,-29.09,-194.94,252.44
1186,1377272627,-3.0771,0.2998,0.8555,1.52,-189.33,235.06
1187,1377277627,-3.0029,0.3984,0.7397,25.79,-184.70,221.28
1188,1377282629,-2.9966,0.4121,0.5928,42.32,-181.34,211.28
1189,1377287628,-3.0879,0.3452,0.5933,50.79,-179.39,204.70
1190,1377292695,-3.2383,0.2852,0.5889,50.49,-178.17,200.24
1191,1377297627,-3.2949,0.2866,0.4658,41.10,-177.87,197.01
1192,1377302629,-3.0957,0.3833,0.4150,22.56,-178.90,193.29
1193,1377307628,-2.7314,0.4512,0.3628,-3.66,-180.91,187.93
1194,1377312629,-2.3408,0.4814,0.3149,-33.78,-183.54,181.04
1195,1377317628,-2.0972,0.5430,0.3364,-64.02,-186.04,172.38
1196,1377322628,-1.9990,0.5796,0.3911,-91.04,-187.68,161.71
1197,1377327627,-1.9194,0.6011,0.4072,-111.71,-188.29,150.06
1198,1377332629,-1.8149,0.6211,0.4561,-124.02,-187.07,137.99
1199,1377337628,-1.7363,0.5908,0.5088,-126.65,-183.78,126.28
1200,1377342627,-1.6763,0.5898,0.5195,-120.00,-178.48,115.18
1201,1377347629,-1.6289,0.6021,0.5142,-105.67,-171.16,104.88
1202,1377352629,-1.5767,0.6084,0.5020,-85.24,-162.93,95.49
1203,1377357627,-1.5459,0.5991,0.4941,-60.18,-153.72,87.62
1204,1377362629,-1.5547,0.5933,0.4927,-32.99,-144.39,80.73
1205,1377367628,-1.5469,0.6025,0.4995,-5.98,-134.57,75.24
1206,1377372629,-1.4697,0.6328,0.5132,17.74,-125.12,70.79
1207,1377377628,-1.3853,0.6460,0.5273,35.85,-116.16,67.32
1208,1377382627,-1.3687,0.6680,0.5298,47.32,-107.99,65.06
1209,1377387629,-1.4004,0.7114,0.5264,52.32,-101.22,63.72
1210,1377392627,-1.4355,0.7407,0.5278,51.65,-95.67,63.05
1211,1377397627,-1.4541,0.7656,0.5273,46.52,-91.59,63.17
1212,1377402627,-1.4541,0.7905,0.5234,38.11,-88.60,63.84
1213,1377407627,-1.4478,0.8062,0.5220,27.74,-86.34,64.88
1214,1377412716,-1.4478,0.8135,0.5078,16.34,-84.70,66.16
1215,1377417628,-1.4219,0.8008,0.4683,4.33,-83.78,67.87
1216,1377422629,-1.3364,0.7852,0.4419,-7.68,-83.60,69.76
1217,1377427628,-1.1919,0.7739,0.4155,-18.90,-83.72,71.40
1218,1377432627,-1.0200,0.7612,0.4019,-28.66,-83.90,73.05
1219,1377437631,-0.8906,0.7510,0.3799,-36.40,-84.02,74.33
1220,1377442628,-0.7959,0.7388,0.3618,-41.65,-84.09,75.37
1221,1377447627,-0.6772,0.7534,0.3452,-44.02,-83.96,76.16
1222,1377452627,-0.5522,0.7598,0.3535,-43.41,-83.72,76.52
1223,1377457627,-0.4897,0.7646,0.3633,-39.82,-82.87,76.95
1224,1377463054,-0.4858,0.7793,0.3706,-33.60,-81.83,77.50
1225,1377467629,-0.4917,0.7769,0.3721,-24.70,-80.49,78.29
1226,1377472629,-0.4692,0.7861,0.3926,-13.96,-79.02,78.96
1227,1377477629,-0.4038,0.7832,0.4248,-1.65,-77.07,79.63
1228,1377482627,-0.3247,0.7759,0.4561,11.40,-74.94,80.43
1229,1377487627,-0.2671,0.7690,0.4844,24.57,-72.44,80.91
1230,1377492627,-0.2280,0.7607,0.5054,36.71,-69.63,81.40
1231,1377497629,-0.2041,0.7456,0.5181,47.32,-66.89,81.59
1232,1377502628,-0.1626,0.7310,0.5356,55.67,-64.27,81.65
1233,1377507627,-0.1270,0.7114,0.5342,61.10,-61.83,81.52
1234,1377512629,-0.1016,0.6890,0.5391,63.54,-59.70,80.98
1235,1377517628,-0.0869,0.6641,0.5312,63.11,-57.99,80.18
1236,1377522627,-0.0615,0.6230,0.5259,60.06,-56.59,79.09
1237,1377527630,-0.0288,0.5898,0.5283,55.18,-55.37,77.99
1238,1377532628,-0.0049,0.5591,0.5244,48.41,-54.57,76.83
1239,1377537631,-0.0029,0.5273,0.5117,40.37,-53.78,75.30
1240,1377542629,-0.0054,0.4985,0.5005,31.46,-53.29,73.84
1241,1377547628,0.0063,0.4722,0.4907,21.89,-53.17,72.07
1242,1377552627,0.0288,0.4648,0.4922,12.56,-52.93,70.12
1243,1377557627,0.0576,0.4673,0.4858,3.41,-52.68,67.93
1244,1377562627,0.0869,0.4692,0.4878,-4.88,-52.62,65.37
1245,1377567627,0.0918,0.4634,0.4854,-12.07,-52.32,62.62
1246,1377572629,0.0874,0.4683,0.4810,-17.93,-51.95,59.88
1247,1377577627,0.0874,0.4819,0.4741,-21.34,-51.65,57.07
1248,1377582627,0.0962,0.5024,0.4814,-22.32,-50.73,54.27
1249,1377587627,0.1118,0.5088,0.4951,-20.98,-50.00,51.46
1250,1377592627,0.1211,0.5215,0.5088,-16.71,-48.90,48.90
1251,1377597747,0.1099,0.5386,0.5210,-10.00,-47.50,46.34
1252,1377602629,0.1001,0.5488,0.5210,-1.16,-45.91,44.02
1253,1377607627,0.1079,0.5479,0.5288,9.15,-44.09,41.71
1254,1377612627,0.1123,0.5425,0.5322,20.43,-42.38,39.57
1255,1377617633,0.1133,0.5454,0.5415,31.65,-40.49,37.68
1256,1377622629,0.1128,0.5410,0.5454,41.59,-38.54,35.55
1257,1377627628,0.1143,0.5347,0.5552,49.51,-36.71,33.48
1258,1377632627,0.1167,0.5195,0.5488,54.63,-34.88,31.40
1259,1377637627,0.1157,0.5083,0.5620,56.83,-33.23,29.33
1260,1377642627,0.1162,0.4956,0.5591,55.67,-31.77,27.20
1261,1377647627,0.1143,0.4868,0.5659,51.52,-30.49,25.18
1262,1377652628,0.1050,0.4756,0.5674,44.63,-29.33,23.11
1263,1377657627,0.1050,0.4688,0.5659,35.12,-28.35,21.16
1264,1377662708,0.1167,0.4692,0.5571,23.84,-27.62,19.45
1265,1377667627,0.1289,0.4741,0.5542,11.10,-26.83,17.50
1266,1377672627,0.1445,0.4956,0.5479,-2.01,-26.52,15.55
1267,1377677627,0.1704,0.5112,0.5405,-14.76,-26.04,13.35
1268,1377682627,0.1895,0.5078,0.5391,-25.91,-25.49,11.59
1269,1377687627,0.1738,0.5107,0.5366,-34.57,-24.82,10.12
1270,1377692627,0.1489,0.5327,0.5352,-40.30,-24.15,8.78
1271,1377697627,0.1362,0.5449,0.5308,-43.05,-23.23,7.62
1272,1377702627,0.1357,0.5527,0.5278,-42.62,-22.26,6.46
1273,1377707631,0.1362,0.5605,0.5288,-39.39,-21.16,5.49
1274,1377712629,0.1411,0.5688,0.5347,-33.48,-19.88,4.45
1275,1377717627,0.1484,0.5732,0.5381,-25.30,-18.66,3.48
1276,1377722627,0.1553,0.5659,0.5386,-15.43,-17.62,2.62
1277,1377727627,0.1611,0.5562,0.5381,-4.45,-16.22,1.89
1278,1377732629,0.1714,0.5459,0.5469,7.07,-15.18,1.16
1279,1377737628,0.1919,0.5332,0.5591,18.41,-14.27,0.55
1280,1377742631,0.2192,0.5283,0.5723,28.78,-13.17,-0.18
1281,1377747628,0.2505,0.5220,0.5840,37.26,-12.32,-1.04
1282,1377752657,0.2837,0.5220,0.6045,43.11,-11.46,-2.13
1283,1377757629,0.3062,0.5225,0.6221,45.79,-10.61,-3.41
1284,1377762714,0.2969,0.5254,0.6226,44.76,-9.88,-4.63
1285,1377767629,0.2617,0.5444,0.6143,40.06,-9.63,-6.04
1286,1377772627,0.2324,0.5513,0.6055,32.32,-9.57,-7.62
1287,1377777629,0.2197,0.5557,0.5977,22.74,-9.76,-9.21
1288,1377782627,0.2124,0.5625,0.6006,12.44,-10.12,-10.79
1289,1377787627,0.2271,0.5679,0.6011,2.87,-10.18,-12.26
1290,1377792628,0.2329,0.5684,0.6147,-5.00,-10.18,-13.60
1291,1377797628,0.2393,0.5752,0.6230,-10.06,-9.88,-14.82
1292,1377802627,0.2432,0.5923,0.6367,-12.13,-9.27,-15.85
1293,1377807627,0.2549,0.6147,0.6440,-11.16,-8.60,-16.83
1294,1377812627,0.2578,0.6309,0.6577,-7.32,-7.68,-17.62
1295,1377817627,0.2520,0.6445,0.6611,-1.04,-6.59,-18.29
1296,1377822828,0.2544,0.6748,0.6729,6.71,-5.37,-18.84
1297,1377827629,0.2656,0.7061,0.6865,15.24,-3.96,-19.51
1298,1377832629,0.2681,0.7197,0.6865,23.48,-2.50,-19.94
1299,1377837685,0.2441,0.7432,0.6909,30.49,-1.10,-20.12
1300,1377842627,0.2231,0.7700,0.6963,35.98,0.00,-20.30
1301,1377847627,0.2090,0.7876,0.6929,39.45,1.04,-20.43
1302,1377852627,0.1982,0.7998,0.6890,40.91,2.01,-20.55
1303,1377858433,0.1885,0.8110,0.6958,40.37,2.93,-20.37
1304,1377862629,0.1748,0.8159,0.6909,38.66,3.48,-20.24
1305,1377867629,0.1567,0.8237,0.6958,35.24,4.15,-19.94
1306,1377872629,0.1479,0.8218,0.6934,31.10,4.63,-19.57
1307,1377877630,0.1533,0.8145,0.6924,26.40,5.18,-18.96
1308,1377882627,0.1665,0.8057,0.7051,21.46,5.85,-18.29
1309,1377887627,0.1709,0.8003,0.7021,16.46,6.34,-17.50
1310,1377892627,0.1670,0.7964,0.7158,11.59,6.95,-16.65
1311,1377897627,0.1626,0.7974,0.7104,6.77,7.44,-15.85
1312,1377902627,0.1665,0.7959,0.7046,2.20,7.93,-15.12
1313,1377907627,0.1699,0.7920,0.7061,-1.65,8.17,-14.51
1314,1377912627,0.1797,0.7886,0.7261,-4.94,8.90,-13.84
1315,1377917627,0.1729,0.7856,0.7280,-7.80,9.45,-13.17
1316,1377922627,0.1543,0.7915,0.7153,-10.61,9.82,-12.56
1317,1377927627,0.1494,0.8047,0.7046,-13.29,10.00,-12.01
1318,1377932800,0.1528,0.8096,0.6973,-15.85,10.06,-11.59
1319,1377937629,0.1543,0.8115,0.6929,-17.56,9.88,-11.28
1320,1377942629,0.1494,0.8145,0.6943,-17.74,9.63,-10.98
1321,1377947629,0.1587,0.8140,0.7002,-16.22,9.39,-10.67
1322,1377952628,0.1738,0.8032,0.7085,-12.80,9.21,-10.30
1323,1377957629,0.1807,0.7988,0.7134,-8.17,9.33,-9.82
1324,1377962627,0.1797,0.7920,0.7134,-2.56,9.39,-9.57
1325,1377967629,0.1689,0.7920,0.7090,2.99,9.15,-9.09
1326,1377972629,0.1680,0.7827,0.7075,7.93,8.96,-8.84
1327,1377977631,0.1636,0.7744,0.7026,12.32,8.78,-8.60
1328,1377982628,0.1646,0.7656,0.7065,15.79,8.23,-8.41
1329,1377987627,0.1670,0.7520,0.7134,18.29,8.05,-8.17
1330,1377992627,0.1748,0.7441,0.7227,19.70,7.50,-8.17
1331,1377997627,0.1660,0.7417,0.7266,19.94,7.13,-8.17
1332,1378002631,0.1401,0.7437,0.7231,18.96,6.71,-8.41
1333,1378007628,0.1167,0.7451,0.7261,17.26,6.40,-8.66
1334,1378012627,0.1133,0.7524,0.7310,15.00,5.91,-9.33
1335,1378017627,0.1279,0.7529,0.7285,12.80,5.67,-9.82
1336,1378022627,0.1372,0.7422,0.7329,11.10,5.43,-10.43
1337,1378027627,0.1357,0.7407,0.7275,10.06,5.30,-10.73
1338,1378032637,0.1323,0.7378,0.7305,10.12,5.24,-10.98
1339,1378037632,0.1260,0.7295,0.7261,10.79,5.18,-11.22
1340,1378042628,0.1401,0.7295,0.7109,12.44,5.06,-11.46
1341,1378047627,0.1543,0.7280,0.7134,14.51,4.88,-11.65
1342,1378052627,0.1641,0.7295,0.7163,17.50,4.76,-11.77
1343,1378057629,0.1626,0.7344,0.7148,20.91,4.45,-12.07
1344,1378062628,0.1597,0.7358,0.7114,25.06,4.33,-12.26
1345,1378067629,0.1768,0.7402,0.7280,29.33,4.21,-12.62
1346,1378072628,0.1865,0.7407,0.7319,33.54,4.21,-13.05
1347,1378077627,0.1958,0.7485,0.7378,37.07,4.09,-13.35
1348,1378082627,0.1948,0.7622,0.7417,39.21,3.96,-13.78
1349,1378087631,0.1851,0.7661,0.7378,39.76,4.02,-14.33
1350,1378092688,0.1748,0.7798,0.7363,38.66,3.90,-14.76
1351,1378097629,0.1504,0.7876,0.7314,36.40,3.41,-15.18
1352,1378102627,0.1499,0.7920,0.7393,33.66,3.11,-15.67
1353,1378107627,0.1636,0.7949,0.7495,31.10,2.74,-16.04
1354,1378112627,0.1772,0.7915,0.7588,29.51,2.68,-16.28
1355,1378117627,0.1777,0.7954,0.7681,28.72,2.56,-16.59
1356,1378122627,0.1724,0.8066,0.7695,28.66,2.93,-16.77
1357,1378127627,0.1680,0.8135,0.7720,29.02,3.17,-17.26
1358,1378132627,0.1636,0.8213,0.7627,29.63,3.41,-17.87
1359,1378137628,0.1641,0.8320,0.7666,30.49,3.66,-18.29
1360,1378142627,0.1709,0.8359,0.7715,31.59,4.21,-18.84
1361,1378147627,0.1689,0.8447,0.7700,32.74,4.57,-19.27
1362,1378152627,0.1499,0.8628,0.7671,33.66,4.88,-19.63
1363,1378157627,0.1401,0.8794,0.7642,34.15,5.18,-19.82
1364,1378162627,0.1445,0.8848,0.7656,34.33,5.37,-19.76
1365,1378167627,0.1450,0.8901,0.7754,34.21,5.73,-19.27
1366,1378172627,0.1416,0.8989,0.7827,33.23,6.04,-18.72
1367,1378177627,0.1309,0.9141,0.7769,31.89,6.34,-18.11
1368,1378182627,0.1255,0.9189,0.7773,29.63,6.65,-17.07
1369,1378187627,0.1216,0.9258,0.7700,26.71,6.95,-16.28
1370,1378192628,0.1143,0.9321,0.7681,23.35,7.13,-15.43
1371,1378197627,0.1064,0.9321,0.7642,20.00,7.38,-14.57
1372,1378202627,0.1055,0.9282,0.7598,16.95,7.50,-13.48
1373,1378207627,0.1099,0.9268,0.7568,14.51,7.44,-12.50
1374,1378212627,0.1143,0.9282,0.7515,13.05,7.68,-11.46
1375,1378217627,0.1147,0.9248,0.7539,12.62,7.74,-10.49
1376,1378222627,0.1216,0.9185,0.7534,13.23,7.87,-9.51
1377,1378227627,0.1284,0.9219,0.7534,14.70,7.80,-8.60
1378,1378232627,0.1475,0.9194,0.7515,16.46,7.80,-7.80
1379,1378237627,0.1582,0.9165,0.7612,18.35,7.80,-7.07
1380,1378242829,0.1641,0.9165,0.7627,19.70,7.87,-6.34
1381,1378247694,0.1733,0.9248,0.7676,20.37,7.62,-5.79
1382,1378252629,0.1782,0.9248,0.7671,20.00,7.56,-5.24
1383,1378257628,0.1738,0.9312,0.7627,18.84,7.13,-4.76
1384,1378262627,0.1641,0.9316,0.7690,17.07,6.83,-4.15
1385,1378267627,0.1479,0.9331,0.7583,14.82,6.52,-3.54
1386,1378272627,0.1421,0.9268,0.7578,12.62,6.04,-2.87
1387,1378277631,0.1382,0.9238,0.7646,10.43,5.73,-2.13
1388,1378282629,0.1367,0.9277,0.7642,8.41,5.37,-1.28
1389,1378287628,0.1309,0.9258,0.7637,6.71,5.06,-0.55
1390,1378292629,0.1182,0.9268,0.7495,5.43,4.70,-0.06
1391,1378297629,0.1143,0.9219,0.7490,4.88,4.27,0.67
1392,1378302628,0.1196,0.9194,0.7456,5.37,3.84,1.16
1393,1378307629,0.1245,0.9116,0.7432,6.83,3.48,1.59
1394,1378312628,0.1294,0.9077,0.7446,8.84,3.29,2.01
1395,1378318155,0.1294,0.9053,0.7495,11.28,3.05,2.56
1396,1378322629,0.1162,0.9004,0.7339,13.48,2.68,2.93
1397,1378327629,0.1074,0.9053,0.7329,14.94,2.50,3.17
1398,1378332628,0.1040,0.9033,0.7222,15.67,2.20,3.35
1399,1378337629,0.1040,0.8984,0.7236,15.79,1.65,3.54
1400,1378342629,0.1025,0.8887,0.7168,15.49,1.34,3.60
1401,1378347628,0.1016,0.8882,0.7197,14.82,1.10,3.72
1402,1378352627,0.1104,0.8794,0.7207,14.02,0.67,3.90
1403,1378357631,0.1157,0.8638,0.7217,13.35,0.18,4.09
1404,1378362628,0.1084,0.8628,0.7109,12.50,0.06,4.21
1405,1378367627,0.1074,0.8540,0.7109,11.71,-0.24,4.33
1406,1378372629,0.1133,0.8447,0.7041,10.85,-0.43,4.39
1407,1378377627,0.1167,0.8423,0.7002,10.00,-0.73,4.39
1408,1378382627,0.1157,0.8433,0.7021,9.15,-0.79,4.39
1409,1378387627,0.1128,0.8452,0.6968,8.11,-0.79,4.45
1410,1378393098,0.1001,0.8472,0.6934,6.65,-0.85,4.57
1411,1378397629,0.0884,0.8516,0.6890,4.88,-0.79,4.51
1412,1378402627,0.0854,0.8535,0.6860,2.99,-0.85,4.57
1413,1378407629,0.0791,0.8530,0.6851,0.61,-0.85,4.88
1414,1378412627,0.0718,0.8550,0.6816,-1.52,-0.85,5.06
1415,1378417744,0.0645,0.8496,0.6699,-3.60,-0.73,5.24
1416,1378422636,0.0615,0.8491,0.6699,-5.00,-0.79,5.55
1417,1378427627,0.0552,0.8462,0.6626,-5.61,-0.67,5.67
1418,1378432627,0.0527,0.8472,0.6602,-5.24,-0.91,5.79
1419,1378437627,0.0640,0.8394,0.6572,-3.72,-1.04,5.79
1420,1378442627,0.0771,0.8369,0.6646,-1.10,-0.91,5.79
1421,1378447627,0.0850,0.8276,0.6748,2.62,-0.98,5.67
1422,1378452627,0.0923,0.8213,0.6748,6.77,-0.85,5.67
1423,1378457627,0.0928,0.8188,0.6699,10.98,-0.73,5.43
1424,1378462635,0.0894,0.8130,0.6782,14.76,-0.61,5.24
1425,1378467628,0.0933,0.8125,0.6831,17.56,-0.67,4.88
1426,1378472627,0.0918,0.8081,0.6807,19.21,-0.67,4.57
1427,1378477627,0.0903,0.8037,0.6812,19.33,-0.79,4.15
1428,1378482627,0.0962,0.7964,0.6807,18.17,-0.85,3.72
1429,1378487627,0.0991,0.7920,0.6875,15.55,-1.04,3.23
1430,1378492627,0.0962,0.7974,0.6841,12.07,-1.34,2.80
1431,1378497627,0.0835,0.7998,0.6836,7.80,-1.83,2.13
1432,1378502629,0.0776,0.8091,0.6709,3.35,-2.44,1.46
1433,1378507627,0.0747,0.8101,0.6738,-0.30,-3.05,0.79
1434,1378512627,0.0781,0.8120,0.6680,-2.80,-3.66,0.12
1435,1378517791,0.0771,0.8149,0.6729,-3.72,-4.02,-0.43
1436,1378522627,0.0820,0.8184,0.6641,-3.23,-4.33,-1.04
1437,1378527627,0.0688,0.8291,0.6621,-1.46,-4.51,-1.65
1438,1378532630,0.0576,0.8354,0.6572,1.10,-4.88,-2.20
1439,1378537628,0.0547,0.8369,0.6533,4.33,-5.18,-2.80
1440,1378542628,0.0547,0.8350,0.6509,7.87,-5.30,-3.35
1441,1378547783,0.0513,0.8359,0.6528,10.98,-5.49,-3.66
1442,1378552629,0.0356,0.8359,0.6484,13.23,-5.49,-3.96
1443,1378557628,0.0122,0.8364,0.6421,14.45,-5.55,-4.21
1444,1378562627,-0.0098,0.8398,0.6372,14.45,-5.85,-4.39
1445,1378567627,-0.0283,0.8379,0.6294,13.41,-5.91,-4.45
1446,1378572627,-0.0420,0.8384,0.6274,11.77,-6.16,-4.45
1447,1378577627,-0.0591,0.8364,0.6245,9.94,-6.40,-4.45
1448,1378582627,-0.0693,0.8242,0.6230,8.23,-6.46,-4.45
1449,1378587627,-0.0786,0.8179,0.6196,7.44,-6.52,-4.39
1450,1378592629,-0.0781,0.8115,0.6250,7.44,-6.52,-4.21
1451,1378597627,-0.0742,0.8052,0.6284,8.48,-6.22,-4.27
1452,1378602629,-0.0640,0.7964,0.6318,10.24,-6.16,-4.33
1453,1378607627,-0.0576,0.7876,0.6455,12.38,-5.91,-4.57
1454,1378612627,-0.0625,0.7759,0.6392,14.51,-5.55,-5.06
1455,1378617627,-0.0630,0.7646,0.6323,16.04,-5.37,-5.55
1456,1378622627,-0.0688,0.7578,0.6299,16.89,-5.30,-6.10
1457,1378627627,-0.0620,0.7539,0.6309,16.77,-5.37,-7.01
1458,1378632627,-0.0723,0.7515,0.6411,15.79,-5.37,-8.05
1459,1378637627,-0.0830,0.7417,0.6211,13.84,-5.55,-9.15
1460,1378642627,-0.0850,0.7417,0.6133,11.28,-5.98,-10.30
1461,1378647627,-0.0947,0.7344,0.6133,8.54,-6.34,-11.52
1462,1378652627,-0.0967,0.7275,0.6040,5.79,-6.71,-12.93
1463,1378657629,-0.1040,0.7188,0.6064,3.41,-7.07,-14.21
1464,1378662627,-0.1191,0.7070,0.6060,1.46,-7.68,-15.49
1465,1378667628,-0.1382,0.7031,0.5962,-0.24,-8.05,-16.89
1466,1378672627,-0.1533,0.6904,0.5767,-1.52,-8.48,-18.23
1467,1378677688,-0.1685,0.6831,0.5723,-2.56,-9.09,-19.63
1468,1378682627,-0.1812,0.6709,0.5620,-3.29,-9.76,-20.98
1469,1378687627,-0.1963,0.6567,0.5459,-3.60,-10.67,-22.44
1470,1378692632,-0.2017,0.6455,0.5425,-3.54,-11.59,-23.90
1471,1378697629,-0.2056,0.6328,0.5376,-2.80,-12.50,-25.49
1472,1378702630,-0.2031,0.6172,0.5239,-1.59,-13.35,-26.95
1473,1378707897,-0.2017,0.6064,0.5181,0.18,-14.45,-28.66
1474,1378712629,-0.2046,0.6025,0.5103,2.26,-15.55,-30.37
1475,1378717627,-0.1973,0.5977,0.5034,4.88,-16.83,-32.26
1476,1378722627,-0.1919,0.5889,0.4995,7.68,-18.11,-34.33
1477,1378727627,-0.1836,0.5811,0.4976,10.91,-19.45,-36.52
1478,1378732627,-0.1846,0.5757,0.5024,14.45,-20.67,-38.90
1479,1378737787,-0.2017,0.5732,0.4985,17.93,-21.95,-41.52
1480,1378742629,-0.2202,0.5708,0.5024,21.40,-23.35,-44.27
1481,1378747627,-0.2319,0.5674,0.4976,24.94,-24.88,-47.20
1482,1378752628,-0.2349,0.5615,0.4932,28.54,-26.28,-50.12
1483,1378757629,-0.2402,0.5615,0.4937,32.32,-27.62,-53.29
