# skilleye imu stream v1
# device=xiao_esp32c6 imu=mpu6050 addr=0x68
# rate_hz=200 accel_range_g=16 gyro_range_dps=2000 dlpf_hz=94
# units: accel in g, gyro in deg/s, t_us in microseconds since boot (monotonic)
# no shared clock with the camera -- tap the racket once before each take
# so both recordings share a spike to align on
seq,t_us,ax,ay,az,gx,gy,gz
0,1611847628,0.6128,0.7134,0.2993,-6.22,-13.72,-14.94
1,1611852632,0.6157,0.7090,0.3057,-4.27,-15.43,-13.23
2,1611857630,0.6128,0.7134,0.3066,-2.38,-16.83,-11.46
3,1611862630,0.6089,0.7183,0.3022,-0.73,-18.29,-9.70
4,1611867629,0.6104,0.7212,0.3003,0.79,-19.39,-8.05
5,1611872630,0.6108,0.7310,0.3047,1.95,-20.30,-6.46
6,1611877629,0.6260,0.7480,0.2954,2.68,-21.16,-5.12
7,1611882629,0.6357,0.7676,0.2886,2.99,-22.20,-3.66
8,1611887629,0.6470,0.8140,0.2705,2.68,-23.41,-2.74
9,1611892628,0.6738,0.8970,0.2412,1.65,-25.43,-2.56
10,1611897629,0.6831,0.9219,0.2734,-0.67,-27.74,-3.35
11,1611902629,0.6885,0.8926,0.2759,-3.84,-30.37,-4.76
12,1611907629,0.6982,0.7964,0.2754,-6.16,-32.62,-5.37
13,1611912630,0.6909,0.7251,0.2769,-6.83,-33.96,-4.57
14,1611917629,0.6650,0.7241,0.2856,-5.49,-34.39,-2.68
15,1611922629,0.6440,0.7476,0.2827,-2.50,-33.78,-0.61
16,1611927629,0.6421,0.7700,0.2759,1.34,-32.50,1.46
17,1611932630,0.6416,0.8062,0.2559,5.12,-31.04,3.17
18,1611937629,0.6504,0.8218,0.2437,7.87,-29.63,4.33
19,1611942627,0.6636,0.8115,0.2324,9.27,-28.48,5.06
20,1611947630,0.6504,0.8364,0.2549,9.76,-27.26,5.55
21,1611952629,0.6211,0.8784,0.2412,9.94,-25.12,5.12
22,1611957627,0.6401,0.8198,0.1821,10.37,-22.99,4.63
23,1611962631,0.6660,0.7925,0.1807,9.76,-21.59,4.27
24,1611967628,0.6738,0.7520,0.1689,7.99,-20.61,3.84
25,1611972629,0.6704,0.7349,0.1626,5.55,-20.12,3.72
26,1611977627,0.6738,0.7168,0.1572,3.35,-19.76,3.78
27,1611982627,0.6743,0.7051,0.1421,1.77,-19.21,4.39
28,1611987627,0.6660,0.6816,0.1582,0.43,-18.60,4.94
29,1611992627,0.7119,0.6616,0.1416,-0.55,-17.87,5.61
30,1611997630,0.7373,0.6582,0.1260,-1.22,-17.13,6.46
31,1612002629,0.7495,0.6641,0.1191,-1.71,-16.59,7.07
32,1612007665,0.7554,0.6763,0.1289,-2.01,-15.91,7.68
33,1612012627,0.7715,0.6948,0.1289,-2.13,-15.00,7.87
34,1612017627,0.7832,0.7114,0.1226,-1.89,-13.90,7.87
35,1612022630,0.7876,0.7314,0.1211,-1.83,-12.93,7.50
36,1612027631,0.7783,0.7559,0.1245,-1.77,-11.65,7.07
37,1612032628,0.7705,0.7754,0.1333,-1.83,-10.30,6.65
38,1612037629,0.7690,0.7798,0.1211,-2.07,-8.96,6.04
39,1612042629,0.7705,0.7705,0.1157,-2.26,-7.44,5.55
40,1612047627,0.7651,0.7637,0.1226,-2.99,-6.10,5.18
41,1612052627,0.7598,0.7559,0.1221,-4.15,-4.51,4.82
42,1612057627,0.7422,0.7529,0.1250,-5.37,-2.99,4.51
43,1612062627,0.7329,0.7656,0.1147,-6.71,-1.83,4.27
44,1612067627,0.7378,0.7524,0.1367,-7.74,-0.61,4.21
45,1612072627,0.7500,0.7935,0.1343,-7.93,0.37,4.39
46,1612077631,0.7666,0.7612,0.1611,-6.04,1.34,4.94
47,1612082629,0.7319,0.7886,0.3765,-1.52,33.84,6.04
48,1612087627,0.7617,0.8062,0.2192,2.68,6.65,7.68
49,1612092627,0.7681,0.8135,0.2266,9.82,8.41,9.21
50,1612097627,0.7676,0.8262,0.2500,17.80,7.74,10.85
51,1612102627,0.7549,0.8823,0.2632,26.04,10.98,12.26
52,1612107627,0.7568,0.8950,0.2402,32.44,8.41,12.99
53,1612112627,0.7632,0.8374,0.2485,39.45,8.84,13.90
54,1612117627,0.7451,0.8184,0.2046,45.49,9.70,14.94
55,1612122688,0.7432,0.8115,0.2202,49.33,10.37,15.73
56,1612127631,0.7510,0.7979,0.2031,51.28,11.16,16.04
57,1612132627,0.7344,0.8188,0.1709,51.59,11.95,16.04
58,1612137627,0.6968,0.8389,0.1450,49.63,12.50,15.18
59,1612142627,0.7651,0.7886,0.1221,45.06,12.32,13.78
60,1612147627,0.8140,0.7461,0.1377,37.80,12.32,12.44
61,1612152627,0.8154,0.7114,0.1147,28.66,11.95,10.85
62,1612157627,0.7793,0.6846,0.1050,19.09,11.40,9.63
63,1612162627,0.7480,0.6567,0.1045,9.45,10.98,8.29
64,1612167627,0.7168,0.6235,0.1152,-0.61,10.18,7.07
65,1612172627,0.6875,0.6279,0.1201,-10.79,9.88,6.16
66,1612177627,0.6714,0.6084,0.1196,-20.55,9.39,5.18
67,1612182656,0.6626,0.6045,0.1250,-29.76,9.09,4.33
68,1612187761,0.6616,0.6074,0.1255,-38.66,8.66,3.60
69,1612192631,0.6636,0.6069,0.1411,-47.13,8.41,3.05
70,1612197631,0.6616,0.6206,0.1318,-55.12,7.74,2.32
71,1612202627,0.6631,0.6138,0.1460,-62.87,6.83,1.71
72,1612207627,0.6602,0.6250,0.1519,-70.24,5.61,1.28
73,1612212627,0.6484,0.6362,0.1455,-76.95,4.15,0.73
74,1612217627,0.6440,0.6323,0.1675,-82.56,2.44,0.18
75,1612222627,0.6323,0.6294,0.1987,-86.83,0.55,-0.30
76,1612228505,0.6265,0.6162,0.2197,-90.00,-1.28,-0.67
77,1612232630,0.6416,0.6094,0.2061,-90.67,-1.77,-0.73
78,1612237627,0.6411,0.6074,0.2812,-90.00,0.73,-0.67
79,1612242628,0.6616,0.6255,0.2861,-87.99,-3.54,-0.61
80,1612247628,0.6650,0.6514,0.3042,-84.70,-2.44,-0.73
81,1612252629,0.6689,0.6782,0.3071,-80.73,-4.15,-1.04
82,1612257627,0.6709,0.6777,0.3120,-76.04,-4.15,-1.40
83,1612262627,0.6729,0.6729,0.3354,-70.79,-4.82,-1.77
84,1612267629,0.6675,0.6758,0.3340,-64.88,-4.70,-2.13
85,1612272629,0.6714,0.6577,0.3394,-58.54,-4.09,-2.62
86,1612278166,0.6704,0.6558,0.3369,-53.23,-4.70,-2.68
87,1612282630,0.6704,0.6631,0.3174,-48.05,-6.46,-2.87
88,1612287629,0.6738,0.6533,0.3110,-42.50,-7.44,-2.80
89,1612293070,0.6704,0.6597,0.3062,-37.13,-8.41,-2.68
90,1612297629,0.6670,0.7202,0.2900,-31.77,-10.61,-2.68
91,1612302630,0.7026,0.6738,0.3242,-26.16,-13.54,-2.74
92,1612307630,0.7339,0.6631,0.3262,-20.18,-16.52,-2.32
93,1612312629,0.7412,0.6724,0.3140,-12.74,-18.96,-1.46
94,1612317628,0.7305,0.6704,0.3125,-4.27,-21.04,-0.55
95,1612322629,0.7056,0.6665,0.3101,4.76,-22.56,0.43
96,1612327628,0.6895,0.6499,0.2969,13.60,-23.84,1.40
97,1612332629,0.6982,0.6475,0.2837,21.77,-25.12,2.26
98,1612337629,0.7266,0.6372,0.2686,28.96,-26.10,3.05
99,1612342629,0.7588,0.6235,0.2588,34.88,-26.95,3.90
100,1612347628,0.7842,0.6187,0.2466,39.63,-27.68,4.51
101,1612352809,0.7798,0.6211,0.2373,43.17,-27.87,5.00
102,1612357629,0.6743,0.6289,0.2666,46.16,-27.62,5.37
103,1612362628,0.6772,0.6411,0.2441,49.51,-26.59,5.61
104,1612367629,0.7222,0.6533,0.2275,52.56,-25.43,6.04
105,1612372627,0.7529,0.6860,0.2134,54.15,-24.09,6.22
106,1612377628,0.7744,0.7324,0.1890,54.63,-22.99,5.98
107,1612382629,0.7900,0.7568,0.1650,53.41,-22.01,5.37
108,1612387629,0.7993,0.7661,0.1313,50.12,-21.52,4.21
109,1612392629,0.8032,0.7539,0.0845,44.51,-21.65,3.05
110,1612397630,0.8027,0.7295,0.0669,36.65,-22.38,1.65
111,1612402629,0.7891,0.7017,0.0669,27.13,-23.29,0.55
112,1612407629,0.7622,0.6758,0.0664,17.07,-23.96,-0.30
113,1612412630,0.7236,0.6577,0.0820,7.93,-24.33,-0.67
114,1612417628,0.6904,0.6421,0.0972,0.06,-24.27,-0.73
115,1612422629,0.6704,0.6362,0.1201,-6.40,-23.48,-0.49
116,1612427629,0.6636,0.6323,0.1353,-12.01,-22.44,-0.24
117,1612432629,0.6714,0.6362,0.1367,-16.59,-21.40,0.49
118,1612437628,0.6680,0.6372,0.1401,-20.85,-20.00,0.98
119,1612442629,0.6597,0.6445,0.1548,-24.82,-18.84,1.65
120,1612447629,0.5938,0.6562,0.1807,-28.66,-17.44,2.07
121,1612452629,0.6401,0.6987,0.1919,-32.07,-15.85,2.44
122,1612457628,0.6777,0.7378,0.1997,-35.00,-14.21,2.20
123,1612462629,0.7139,0.7798,0.2139,-37.20,-12.26,1.77
124,1612467630,0.7397,0.8086,0.2261,-38.48,-10.06,1.10
125,1612472629,0.7471,0.8345,0.2256,-38.54,-7.56,0.43
126,1612477630,0.7437,0.8438,0.2295,-37.93,-5.00,-0.43
127,1612482947,0.7354,0.8218,0.2275,-37.01,-2.50,-0.85
128,1612487629,0.7256,0.7896,0.2192,-35.98,-0.24,-0.73
129,1612492628,0.7104,0.7485,0.2051,-35.49,1.71,-0.24
130,1612497629,0.7065,0.7158,0.2085,-35.49,3.11,0.85
131,1612502627,0.7104,0.6855,0.2168,-35.67,4.45,2.50
132,1612507629,0.7251,0.6611,0.2256,-35.61,5.73,4.39
133,1612512628,0.7241,0.6455,0.2358,-34.88,7.01,6.65
134,1612517629,0.7295,0.6304,0.2500,-33.66,8.41,9.09
135,1612522629,0.7144,0.6104,0.2539,-31.71,10.18,11.95
136,1612527629,0.6938,0.6069,0.2612,-29.39,11.95,14.70
137,1612532628,0.6704,0.6118,0.2725,-26.77,13.84,17.68
138,1612537629,0.6494,0.6201,0.2788,-24.33,15.73,20.43
139,1612542951,0.6533,0.6528,0.2827,-22.32,17.62,22.74
140,1612547629,0.6821,0.6831,0.2778,-20.91,19.21,24.76
141,1612552628,0.7217,0.7056,0.2783,-20.30,20.30,26.04
142,1612557629,0.7568,0.7202,0.2671,-21.28,20.79,26.52
143,1612562627,0.7686,0.7100,0.2700,-23.72,20.55,26.65
144,1612567629,0.7568,0.6914,0.2744,-26.89,19.57,26.28
145,1612572628,0.7310,0.6704,0.2754,-30.61,18.35,25.91
146,1612577629,0.7173,0.6665,0.2632,-33.96,16.59,25.61
147,1612582627,0.7109,0.6572,0.2729,-37.20,14.39,25.37
148,1612587629,0.7080,0.6499,0.2822,-40.12,11.83,24.94
149,1612592628,0.7061,0.6479,0.2856,-42.68,9.27,24.82
150,1612597630,0.7012,0.6650,0.2832,-44.63,6.22,24.51
151,1612602629,0.7002,0.7192,0.2573,-46.28,2.74,23.78
152,1612607630,0.7036,0.8022,0.2822,-48.29,-1.65,22.01
153,1612612629,0.7368,0.8760,0.2993,-50.98,-6.65,18.60
154,1612617629,0.7979,0.7900,0.4102,-52.50,-11.22,14.39
155,1612622627,0.8320,0.6079,0.4546,-50.98,-14.33,11.71
156,1612627629,0.8291,0.5347,0.4546,-44.15,-15.49,11.04
157,1612632629,0.7925,0.5562,0.4438,-32.87,-15.43,11.34
158,1612637628,0.7935,0.6030,0.4536,-19.45,-14.45,11.16
159,1612642629,0.8008,0.6646,0.4717,-6.28,-13.35,10.12
160,1612647628,0.7998,0.6753,0.4595,5.67,-12.62,8.05
161,1612652629,0.8013,0.6250,0.4365,15.85,-11.77,5.61
162,1612657629,0.8066,0.5845,0.3853,23.60,-11.40,3.05
163,1612662629,0.7964,0.5386,0.3623,28.54,-11.83,0.67
164,1612667628,0.7651,0.5137,0.3354,30.61,-12.80,-1.83
165,1612672629,0.7319,0.5117,0.3354,30.55,-14.39,-4.39
166,1612677629,0.7251,0.5327,0.3325,29.63,-15.73,-7.07
167,1612682629,0.7427,0.5332,0.3247,28.84,-17.13,-9.82
168,1612687629,0.7642,0.5234,0.3267,28.96,-18.23,-12.44
169,1612692627,0.7764,0.5137,0.3364,29.76,-19.27,-15.00
170,1612697629,0.7754,0.5210,0.3394,31.59,-20.00,-17.38
171,1612702628,0.7744,0.5474,0.3359,34.09,-20.79,-19.76
172,1612707629,0.7627,0.5688,0.3247,37.20,-21.28,-22.32
173,1612712627,0.7920,0.5889,0.3223,40.49,-21.46,-24.82
174,1612717629,0.8169,0.5908,0.2959,43.35,-21.77,-26.89
175,1612722628,0.7915,0.6060,0.2759,45.30,-22.07,-28.66
176,1612727629,0.7476,0.6235,0.2432,45.91,-22.44,-29.94
177,1612732627,0.7046,0.6309,0.2056,45.24,-22.99,-30.67
178,1612737629,0.6763,0.6489,0.1860,43.41,-23.60,-30.79
179,1612742628,0.6650,0.6704,0.1431,40.37,-24.27,-30.79
180,1612747629,0.6519,0.6831,0.1665,38.29,-23.90,-30.49
181,1612752627,0.6606,0.7026,0.1626,35.37,-23.84,-30.06
182,1612757629,0.6655,0.7393,0.1733,32.62,-23.84,-29.45
183,1612762627,0.6675,0.7437,0.1714,30.06,-23.54,-29.09
184,1612767629,0.6646,0.7388,0.1543,28.41,-23.60,-28.35
185,1612772628,0.6777,0.7485,0.1304,28.29,-30.37,-27.44
186,1612777629,0.6782,0.7729,0.1514,27.99,-23.35,-26.22
187,1612782627,0.6777,0.7935,0.1641,29.15,-23.78,-25.00
188,1612787629,0.7002,0.8057,0.2119,30.61,-22.38,-23.66
189,1612792627,0.7144,0.8193,0.2275,32.32,-21.28,-22.32
190,1612797629,0.7354,0.8369,0.1953,33.84,-20.43,-20.61
191,1612802629,0.7480,0.8633,0.1899,34.94,-19.70,-18.72
192,1612807630,0.7383,0.8892,0.2139,35.49,-18.11,-16.46
193,1612812629,0.7368,0.9067,0.2310,35.30,-16.46,-14.02
194,1612817628,0.7520,0.9204,0.2324,34.63,-15.24,-11.22
195,1612822630,0.7666,0.9404,0.2490,33.48,-14.21,-8.35
196,1612827628,0.7402,1.0068,0.3232,31.40,-13.29,-5.49
197,1612832629,0.7607,0.9927,0.2905,26.16,-12.87,-2.56
198,1612837629,0.7383,0.9634,0.2417,21.46,-13.23,1.16
199,1612842629,0.7798,0.9731,0.2563,19.88,-12.56,4.33
200,1612847628,0.7661,0.9790,0.2412,20.61,-11.77,7.38
201,1612852629,0.7578,0.9795,0.2227,22.32,-11.16,10.06
202,1612857629,0.7295,1.0757,0.2720,25.12,-10.06,12.80
203,1612862629,0.7163,1.0566,0.2471,26.89,-9.15,15.37
204,1612867628,0.7549,0.9922,0.2266,27.93,-8.41,18.41
205,1612872629,0.7510,0.9668,0.2852,27.87,-7.68,21.34
206,1612877630,0.7471,0.9424,0.2866,26.89,-6.65,24.02
207,1612882629,0.7388,0.9629,0.2285,25.24,-6.04,26.65
208,1612887630,0.7456,0.9932,0.2246,23.11,-5.79,29.21
209,1612892629,0.7500,1.0151,0.2646,20.73,-5.30,31.89
210,1612897629,0.7559,1.0166,0.2515,18.17,-4.82,34.63
211,1612902629,0.7485,0.9985,0.2129,15.61,-4.82,37.50
212,1612907628,0.7344,0.9751,0.2100,13.35,-4.94,40.55
213,1612912629,0.7466,0.9585,0.2388,11.65,-5.00,43.54
214,1612917631,0.7490,0.9561,0.2119,10.79,-5.00,46.65
215,1612922628,0.7627,0.9551,0.1958,11.04,-5.55,49.57
216,1612927629,0.7788,0.9575,0.2100,12.20,-5.98,52.32
217,1612932627,0.7935,0.9531,0.2207,13.96,-6.34,54.82
218,1612937629,0.8203,0.9312,0.1997,15.85,-6.52,57.07
219,1612942628,0.8394,0.9043,0.1880,17.74,-6.89,59.15
220,1612947630,0.8379,0.8784,0.2061,19.39,-7.13,60.98
221,1612952627,0.8477,0.8535,0.2192,20.49,-7.26,62.74
222,1612957627,0.8643,0.8413,0.2046,20.37,-7.20,64.09
223,1612962629,0.8721,0.8276,0.2002,18.41,-7.56,65.18
224,1612967628,0.8755,0.8130,0.2104,14.39,-7.87,66.04
225,1612972629,0.8823,0.7998,0.2002,8.48,-7.74,66.59
226,1612977628,0.8916,0.7783,0.1909,1.22,-7.68,66.95
227,1612982629,0.8950,0.7578,0.1943,-6.65,-8.11,67.38
228,1612987629,0.8809,0.7554,0.1978,-14.39,-8.05,67.74
229,1612992629,0.8794,0.7534,0.1899,-21.34,-8.23,67.99
230,1612997628,0.8965,0.7529,0.1709,-26.40,-8.72,68.41
231,1613002629,0.9097,0.7544,0.1772,-28.96,-9.21,69.02
232,1613007629,0.9087,0.7563,0.1860,-28.84,-9.70,69.82
233,1613012854,0.9048,0.7676,0.1841,-26.65,-9.88,70.85
234,1613017629,0.9185,0.7783,0.1675,-23.11,-10.43,72.01
235,1613022628,0.9233,0.7900,0.1626,-18.78,-11.16,73.41
236,1613027669,0.9268,0.8105,0.1519,-14.02,-11.71,75.12
237,1613032627,0.9375,0.8291,0.1455,-8.54,-12.32,77.07
238,1613037629,0.9253,0.8398,0.1479,-2.68,-12.99,79.51
239,1613042628,0.9180,0.8423,0.1494,3.35,-13.60,82.44
240,1613047629,0.9209,0.8472,0.1470,8.41,-14.09,86.04
241,1613052627,0.9243,0.8442,0.1401,12.07,-14.76,88.72
242,1613057629,0.9268,0.8374,0.1411,14.33,-15.49,92.01
243,1613062628,0.9146,0.8354,0.1460,14.88,-16.28,95.49
244,1613067629,0.9048,0.8330,0.1377,14.02,-16.95,98.78
245,1613072627,0.8999,0.8174,0.1382,12.07,-17.74,102.13
246,1613077629,0.8892,0.7998,0.1357,9.33,-18.60,105.67
247,1613082722,0.8696,0.7920,0.1348,5.98,-19.39,109.15
248,1613087629,0.8530,0.7705,0.1230,2.74,-20.37,112.62
249,1613092898,0.8418,0.7407,0.1143,0.43,-21.34,116.04
250,1613097629,0.8340,0.7153,0.1274,-0.49,-22.07,119.39
251,1613102628,0.8262,0.6758,0.1279,-0.12,-22.62,122.68
252,1613107631,0.8164,0.6401,0.1177,1.40,-23.17,125.61
253,1613112627,0.8115,0.6006,0.1045,3.66,-23.72,128.29
254,1613117629,0.8101,0.5581,0.1118,6.71,-24.39,130.61
255,1613122629,0.7993,0.5205,0.1182,10.98,-24.70,132.68
256,1613127629,0.7998,0.4878,0.1357,15.30,-24.76,134.33
257,1613132627,0.8052,0.4419,0.1279,18.72,-24.82,135.55
258,1613137629,0.7939,0.3960,0.1133,20.49,-25.00,136.40
259,1613142628,0.7861,0.3550,0.1147,20.55,-25.12,136.89
260,1613147629,0.7881,0.3120,0.1323,19.88,-25.67,136.89
261,1613152628,0.8130,0.2759,0.1138,18.35,-33.17,136.34
262,1613157629,0.8120,0.2476,0.1211,14.09,-25.85,135.49
263,1613162628,0.7998,0.2188,0.1318,8.78,-25.12,134.02
264,1613167629,0.7437,0.1860,0.1040,3.11,-24.94,132.32
265,1613172627,0.7554,0.1714,0.0986,-2.01,-25.12,130.55
266,1613177629,0.7930,0.1421,0.1099,-5.37,-25.00,128.23
267,1613182628,0.7905,0.1123,0.1108,-6.59,-24.51,125.79
268,1613187629,0.7896,0.0962,0.0913,-5.91,-24.15,123.23
269,1613192628,0.8013,0.0586,0.0708,-3.17,-23.72,120.49
270,1613197632,0.8066,0.0342,0.0742,1.16,-23.23,117.56
271,1613202627,0.8130,0.0151,0.0786,6.34,-22.44,114.27
272,1613207629,0.8286,-0.0034,0.0674,11.40,-21.52,110.67
273,1613212628,0.8330,-0.0151,0.0366,15.67,-20.67,106.83
274,1613217631,0.8145,-0.0405,0.0415,19.33,-19.82,102.99
275,1613222627,0.7803,-0.0674,0.0361,22.62,-18.96,99.15
276,1613227629,0.7886,-0.0776,0.0337,25.37,-17.80,95.30
277,1613232628,0.7886,-0.0903,0.0288,27.44,-16.77,91.16
278,1613237629,0.7681,-0.1143,0.0215,28.41,-16.04,86.95
279,1613242629,0.7617,-0.1279,0.0142,28.48,-15.73,82.87
280,1613247627,0.7705,-0.1328,0.0181,28.11,-13.29,78.48
281,1613252630,0.7764,-0.1509,0.0195,27.26,-11.59,73.78
282,1613257628,0.7520,-0.1807,0.0137,25.67,-9.94,69.39
283,1613262629,0.7329,-0.2007,0.0029,22.87,-8.41,64.70
284,1613267628,0.7295,-0.2246,0.0000,19.27,-7.07,59.94
285,1613272629,0.7114,-0.2480,0.0029,15.37,-5.67,54.94
286,1613277628,0.6992,-0.2627,-0.0078,11.52,-4.27,49.76
287,1613282629,0.6948,-0.2832,-0.0225,8.05,-2.93,44.27
288,1613287629,0.6855,-0.3101,-0.0352,6.40,-1.71,38.66
289,1613292629,0.6606,-0.3335,-0.0303,7.13,-0.49,33.11
290,1613297628,0.6416,-0.3555,-0.0317,10.49,0.85,27.13
291,1613302629,0.6445,-0.3823,-0.0156,15.79,2.07,21.10
292,1613307629,0.6377,-0.4023,-0.0225,22.44,3.41,14.63
293,1613312629,0.6182,-0.4229,-0.0220,29.88,3.96,7.93
294,1613317628,0.6084,-0.4458,-0.0044,37.50,5.85,0.85
295,1613323036,0.6040,-0.4619,-0.0015,44.94,7.56,-6.46
296,1613327629,0.5938,-0.4648,0.0068,51.52,8.96,-14.39
297,1613332628,0.5977,-0.4785,0.0210,56.89,10.18,-22.68
298,1613337629,0.5864,-0.4946,0.0249,60.43,11.10,-31.28
299,1613342627,0.5806,-0.5039,0.0269,61.77,12.13,-40.18
300,1613347629,0.5698,-0.5225,0.0366,60.98,13.17,-49.39
301,1613352628,0.5615,-0.5400,0.0581,57.68,14.02,-58.84
302,1613357629,0.5737,-0.5454,0.0669,51.65,15.24,-68.54
303,1613363177,0.5991,-0.5317,0.0698,43.29,16.34,-78.84
304,1613367629,0.6377,-0.5044,0.0479,33.17,17.38,-89.57
305,1613372628,0.7026,-0.4482,0.0474,23.05,18.48,-100.79
306,1613377629,0.6978,-0.4307,0.0547,14.94,19.88,-111.95
307,1613382627,0.6250,-0.4478,0.0713,10.18,21.52,-122.32
308,1613387629,0.5684,-0.4282,0.0938,9.09,23.41,-131.65
309,1613392628,0.5640,-0.3931,0.0840,10.55,25.30,-140.67
310,1613397629,0.5898,-0.3447,0.0898,14.15,26.95,-149.39
311,1613402627,0.6025,-0.3027,0.1060,18.72,28.23,-158.23
312,1613407629,0.6133,-0.2930,0.1221,23.78,29.39,-167.01
313,1613412628,0.6084,-0.2676,0.1313,28.29,30.24,-175.55
314,1613417629,0.6143,-0.2271,0.1377,31.16,31.10,-184.15
315,1613422627,0.6479,-0.1851,0.1646,32.20,31.28,-192.87
316,1613427631,0.6616,-0.1440,0.1787,31.10,31.46,-201.59
317,1613432628,0.6748,-0.0947,0.2036,27.93,31.40,-210.43
318,1613437629,0.6919,-0.0317,0.2231,22.93,31.28,-219.09
319,1613442627,0.6978,0.0200,0.2295,15.98,30.85,-227.44
320,1613447629,0.6943,0.0845,0.2451,7.56,30.30,-235.18
321,1613452628,0.7202,0.1890,0.2510,-2.07,29.57,-242.44
322,1613457629,0.7612,0.2915,0.2632,-12.62,28.72,-248.84
323,1613462627,0.7622,0.3794,0.2607,-23.78,28.05,-254.02
324,1613467629,0.7246,0.4697,0.2378,-34.88,27.38,-257.50
325,1613472628,0.6738,0.5771,0.2075,-44.70,26.59,-259.27
326,1613477629,1.1260,2.4873,0.1816,-51.46,25.79,-256.28
327,1613482629,1.0103,13.9902,1.5190,-71.04,21.10,-156.52
328,1613487627,1.2583,3.3389,0.9067,-130.37,6.95,-39.02
329,1613492629,1.3213,0.8188,0.3281,-140.30,0.12,3.35
330,1613497629,0.9951,0.0854,0.2935,-119.76,-0.91,23.90
331,1613502630,1.0454,0.8130,0.3623,-84.45,1.52,34.51
332,1613507628,1.0000,1.7964,0.0063,-45.06,2.68,39.82
333,1613512629,0.9922,2.1855,-0.1489,-14.82,0.85,42.20
334,1613517629,1.0112,1.9233,0.1245,9.33,-0.67,44.94
335,1613522627,0.9795,1.2046,0.3096,28.17,-1.16,48.96
336,1613527629,0.9761,0.5254,0.1035,44.57,-2.74,54.27
337,1613532627,0.9565,0.2754,0.0498,60.43,-4.82,59.94
338,1613537628,0.9307,0.5190,0.2515,73.66,-5.49,65.00
339,1613542629,0.9292,0.9927,0.2544,82.68,-5.98,69.21
340,1613547629,0.9321,1.3745,0.0581,87.74,-7.56,72.87
341,1613552627,0.9380,1.4448,0.0591,89.45,-9.70,76.52
342,1613557629,0.9404,1.2090,0.2114,88.72,-10.67,80.98
343,1613562628,0.9302,0.8633,0.1758,86.89,-11.34,86.65
344,1613567629,0.9023,0.6323,0.0469,84.94,-12.68,92.01
345,1613572627,0.8750,0.6235,0.0889,83.23,-13.84,97.99
346,1613577629,0.8496,0.7876,0.1797,81.71,-13.72,103.60
347,1613582787,0.8154,0.9897,0.1040,80.24,-13.78,108.84
348,1613587629,0.8149,1.0635,0.0166,78.48,-14.27,113.96
349,1613592628,0.8242,0.9844,0.0791,77.01,-14.27,119.09
350,1613597629,0.8330,0.8037,0.1353,75.24,-13.72,124.09
351,1613602627,0.8223,0.5972,0.0894,72.74,-13.23,128.84
352,1613607629,0.7959,0.4658,0.0620,68.90,-13.17,133.17
353,1613612628,0.7803,0.4214,0.1157,63.48,-12.74,136.46
354,1613617629,0.7798,0.4297,0.1475,56.71,-12.38,139.09
355,1613622627,0.7954,0.4419,0.1040,48.54,-12.32,140.43
356,1613627629,0.7842,0.3979,0.0996,39.45,-12.80,140.73
357,1613632628,0.7632,0.2729,0.1567,29.82,-13.23,140.12
358,1613637629,0.7388,0.0942,0.1816,20.43,-13.72,138.90
359,1613642627,0.7334,-0.0674,0.1641,12.13,-14.33,136.83
360,1613647632,0.7285,-0.1719,0.1968,4.94,-15.30,133.78
361,1613652628,0.7041,-0.2451,0.2686,-1.59,-15.91,129.45
362,1613657627,0.6826,-0.3159,0.2832,-7.62,-16.52,124.02
363,1613662710,0.6885,-0.3740,0.2383,-13.84,-17.62,117.07
364,1613667627,0.6904,-0.4424,0.2437,-20.85,-19.15,108.29
365,1613673286,0.6572,-0.5659,0.2920,-28.05,-25.24,97.68
366,1613677629,0.6997,-0.7251,0.2578,-34.09,-24.27,85.55
367,1613682627,0.7290,-0.8667,0.2285,-37.62,-25.67,71.34
368,1613687629,0.7407,-0.9536,0.2388,-37.62,-28.96,55.55
369,1613692629,0.7251,-1.0205,0.2671,-34.88,-30.49,37.99
370,1613697629,0.7021,-1.0815,0.2705,-30.24,-31.65,18.96
371,1613702629,0.7124,-1.1475,0.2300,-24.27,-32.87,-1.16
372,1613707628,0.6626,-1.1743,0.2349,-17.20,-34.27,-22.13
373,1613712630,0.6377,-1.2104,0.2471,-9.27,-35.18,-43.66
374,1613717630,0.6030,-1.2256,0.2407,-0.18,-35.91,-65.43
375,1613722629,0.5771,-1.2241,0.2217,10.12,-36.46,-87.32
376,1613727629,0.5454,-1.1919,0.2354,21.28,-36.95,-108.96
377,1613732629,0.5098,-1.1382,0.2534,32.93,-37.26,-130.24
378,1613737630,0.4702,-1.0737,0.2344,44.39,-37.50,-151.04
379,1613742630,0.4219,-0.9990,0.2227,55.30,-37.99,-171.22
380,1613747629,0.3774,-0.9170,0.2280,64.94,-38.54,-190.49
381,1613752629,0.3477,-0.8198,0.2314,72.93,-39.27,-208.78
382,1613757629,0.3281,-0.7148,0.2222,78.78,-40.24,-226.04
383,1613762629,0.3145,-0.5952,0.2051,81.89,-41.16,-242.38
384,1613767629,0.3008,-0.4805,0.2007,81.71,-42.13,-257.50
385,1613772629,0.3013,-0.3589,0.1792,78.11,-43.23,-271.59
386,1613777629,0.3105,-0.2300,0.1475,71.16,-44.33,-284.51
387,1613782629,1.2402,7.2451,-1.0835,72.87,-45.79,-282.74
388,1613787629,1.7656,0.5293,-0.1216,131.83,-35.85,-103.54
389,1613792629,1.6836,1.6255,1.1104,79.57,-37.50,-30.67
390,1613797629,1.2109,3.3735,0.1021,28.60,-40.49,-3.84
391,1613802629,1.3135,3.9014,-0.5425,9.02,-43.48,8.29
392,1613807629,1.1631,3.1992,-0.0215,9.02,-39.76,12.74
393,1613812629,1.0132,1.3560,0.2241,15.67,-32.20,13.23
394,1613817629,1.1401,-0.4888,-0.3740,7.74,-30.79,10.00
395,1613822629,1.1191,-1.3496,-0.4556,-11.28,-33.66,5.67
396,1613827629,1.0044,-1.0137,0.1943,-36.77,-33.90,-1.34
397,1613832629,0.9619,0.0117,0.2832,-63.29,-32.74,-11.16
398,1613837629,0.9766,1.0112,-0.2124,-86.04,-34.88,-21.83
399,1613842629,0.9629,1.4141,-0.1655,-103.35,-37.26,-31.04
400,1613847629,0.9272,1.0747,0.2876,-117.38,-36.04,-38.17
401,1613852629,0.9131,0.3389,0.1685,-129.57,-34.88,-43.23
402,1613857629,0.9033,-0.2529,-0.1802,-139.33,-36.83,-46.83
403,1613862629,0.8701,-0.3369,0.0068,-146.34,-37.99,-49.76
404,1613867629,0.8325,0.0562,0.3159,-151.16,-36.89,-53.05
405,1613872629,0.8467,0.6216,0.0977,-153.60,-36.34,-56.95
406,1613877629,0.8618,1.0659,-0.1792,-151.34,-37.56,-60.37
407,1613882629,0.8398,1.1562,0.0068,-142.44,-37.01,-61.95
408,1613887628,0.8101,0.8872,0.1812,-129.57,-34.57,-61.34
409,1613892631,0.7900,0.4961,-0.0322,-114.82,-32.80,-58.84
410,1613897628,0.7769,0.2319,-0.1211,-100.61,-32.44,-55.91
411,1613902627,0.7393,0.2905,0.1021,-87.50,-30.91,-53.05
412,1613907629,0.7290,0.5669,0.1743,-76.89,-29.02,-50.49
413,1613912629,0.7324,0.8687,-0.0376,-70.67,-28.96,-48.29
414,1613917628,0.7246,1.0186,-0.0435,-68.35,-29.82,-46.10
415,1613922627,0.7104,0.9551,0.1636,-69.76,-29.82,-43.17
416,1613927627,0.7158,0.7490,0.1680,-73.78,-29.21,-40.06
417,1613932695,0.7397,0.5522,0.0078,-80.06,-29.57,-36.34
418,1613937629,0.7427,0.4966,0.0483,-88.05,-30.12,-32.74
419,1613942628,0.7124,0.5806,0.2183,-97.07,-29.51,-29.33
420,1613947629,0.6836,0.7339,0.1582,-106.71,-28.78,-26.34
421,1613952628,0.6699,0.8647,0.0244,-116.34,-29.09,-23.48
422,1613957629,0.6631,0.8921,0.1001,-125.98,-29.02,-20.79
423,1613962628,0.6729,0.8145,0.2090,-135.43,-28.17,-18.11
424,1613967629,0.6909,0.6978,0.1235,-143.78,-27.56,-15.49
425,1613972628,0.6919,0.6411,0.0522,-151.16,-27.80,-12.80
426,1613977629,0.6890,0.6250,0.1304,-157.62,-27.32,-10.49
427,1613982628,0.6880,0.6504,0.1841,-163.05,-25.98,-8.35
428,1613987630,0.7178,0.6909,0.0903,-167.50,-24.82,-6.04
429,1613992628,0.7490,0.7397,0.0620,-171.34,-24.15,-3.78
430,1613997627,0.7739,0.7456,0.1582,-175.00,-22.50,-1.89
431,1614002627,0.8022,0.7012,0.1846,-178.60,-20.43,-0.37
432,1614007629,0.8335,0.6353,0.1035,-182.26,-18.84,1.04
433,1614012628,0.8516,0.5894,0.1157,-185.61,-17.26,2.44
434,1614017631,0.8584,0.5874,0.2153,-188.90,-14.82,3.78
435,1614022628,0.8398,0.6304,0.1968,-192.20,-12.32,5.18
436,1614027629,0.8228,0.6987,0.1313,-195.55,-10.30,6.34
437,1614032628,0.8184,0.7383,0.1631,-199.02,-8.54,7.07
438,1614037629,0.8042,0.7490,0.2456,-202.50,-6.28,7.56
439,1614042628,0.7949,0.7046,0.2456,-205.43,-4.21,8.17
440,1614047629,0.7676,0.6826,0.2100,-207.74,-2.20,8.72
441,1614052628,0.7051,0.6953,0.1982,-207.99,-0.43,8.96
442,1614057629,0.7368,0.5938,0.2964,-207.07,1.71,9.76
443,1614062628,0.7856,0.6870,0.2290,-206.46,3.17,10.67
444,1614067629,0.7212,0.9180,0.0117,-206.16,3.17,8.90
445,1614072628,0.6606,0.7168,0.1191,-204.15,2.50,6.89
446,1614077629,0.6504,0.4990,0.3003,-200.37,3.11,6.40
447,1614082628,0.7051,0.3159,0.3481,-194.45,4.45,7.44
448,1614087629,0.7637,0.2412,0.3276,-187.68,6.22,9.70
449,1614092741,0.8022,0.2759,0.3809,-180.67,8.29,12.07
450,1614097629,0.7979,0.3994,0.4214,-173.96,10.73,13.78
451,1614102628,0.8169,0.4897,0.3501,-167.44,12.80,14.15
452,1614107631,0.8018,0.5454,0.3218,-161.34,14.15,13.78
453,1614112628,0.7310,0.5669,0.3726,-155.12,15.61,12.80
454,1614117629,0.7231,0.4478,0.3574,-148.17,16.40,11.77
455,1614122631,0.7139,0.3486,0.3657,-140.73,17.01,11.40
456,1614127629,0.7065,0.3350,0.4023,-133.35,17.56,11.16
457,1614132627,0.7227,0.3853,0.4497,-126.52,18.54,10.55
458,1614137629,0.7593,0.4390,0.4512,-120.43,19.21,9.21
459,1614142628,0.7837,0.4702,0.4316,-115.06,19.76,7.44
460,1614147629,0.7881,0.4512,0.4385,-110.24,20.55,5.18
461,1614152668,0.7798,0.4189,0.4375,-106.22,21.04,2.99
462,1614157629,0.7710,0.4141,0.3672,-102.87,21.22,0.67
463,1614162628,0.7612,0.4336,0.3081,-100.00,20.85,-2.07
464,1614167631,0.7544,0.4658,0.3169,-97.74,20.43,-5.30
465,1614172628,0.7495,0.5073,0.3271,-95.61,20.37,-8.90
466,1614177629,0.7681,0.5547,0.3096,-93.29,20.37,-12.93
467,1614182628,0.7983,0.5742,0.3286,-90.67,20.55,-17.26
468,1614187630,0.8223,0.5732,0.3755,-87.68,21.52,-21.71
469,1614192627,0.8159,0.5728,0.4141,-83.84,22.99,-26.16
470,1614197634,0.7974,0.6133,0.4341,-79.33,24.82,-30.73
471,1614202629,0.7998,0.6152,0.4751,-74.39,27.01,-35.73
472,1614207629,0.8086,0.5405,0.5146,-69.02,30.06,-39.94
473,1614212628,0.8267,0.5391,0.5518,-63.90,33.23,-43.60
474,1614217630,0.8657,0.5322,0.4521,-59.02,36.10,-47.01
475,1614222627,0.8911,0.4766,0.3237,-54.51,37.32,-49.39
476,1614227631,0.8560,0.4541,0.3315,-50.18,37.20,-50.79
477,1614232628,0.8071,0.5068,0.3696,-46.10,36.40,-51.52
478,1614237629,0.7705,0.5703,0.4272,-42.38,35.37,-52.13
479,1614242628,0.7227,0.6279,0.4834,-39.33,34.70,-52.38
480,1614247629,0.6733,0.6187,0.4878,-35.73,33.78,-51.89
481,1614252628,0.6543,0.6084,0.4883,-31.46,32.32,-50.06
482,1614257629,0.6729,0.6562,0.5054,-26.34,30.30,-47.32
483,1614262628,0.6899,0.7080,0.5522,-20.37,28.05,-44.33
484,1614267629,0.6958,0.7510,0.5923,-13.60,25.91,-41.16
485,1614272628,0.7017,0.7739,0.6016,-6.28,23.66,-37.68
486,1614277630,0.7183,0.7939,0.6084,1.52,21.10,-34.27
487,1614282628,0.7334,0.8096,0.6479,9.15,18.35,-30.67
488,1614287629,0.7500,0.8193,0.6694,16.28,15.49,-27.26
489,1614292628,0.7622,0.8179,0.6895,22.32,12.50,-23.60
490,1614297629,0.7607,0.8320,0.7212,26.89,9.45,-20.00
491,1614302628,0.7510,0.8389,0.7612,29.21,6.52,-16.34
492,1614307629,0.7383,0.8364,0.7783,29.15,3.29,-12.93
493,1614312628,0.7188,0.8320,0.7886,26.59,-0.18,-9.27
494,1614317629,0.6978,0.8301,0.8223,21.83,-3.66,-5.85
495,1614322628,0.6875,0.8306,0.8604,15.55,-7.20,-2.38
496,1614327629,0.6973,0.8262,0.8862,8.17,-10.55,0.85
497,1614332628,0.7002,0.8306,0.9009,0.43,-13.84,3.90
498,1614337629,0.7012,0.8232,0.9204,-7.50,-17.01,6.77
499,1614342629,0.7080,0.8027,0.9277,-15.06,-19.82,9.63
500,1614347631,0.7246,0.7871,0.9316,-21.89,-22.74,12.74
501,1614352628,0.7485,0.7739,0.9390,-27.50,-25.49,15.49
502,1614357629,0.7544,0.7676,0.9536,-31.95,-28.05,18.35
503,1614362628,0.7593,0.7515,0.9663,-35.18,-30.43,21.16
504,1614367629,0.7720,0.7363,0.9678,-37.38,-32.32,23.78
505,1614372628,0.7900,0.7207,0.9722,-39.02,-34.02,26.46
506,1614377630,0.7969,0.7012,0.9761,-40.00,-35.61,28.90
507,1614382628,0.8042,0.6821,0.9785,-41.10,-36.77,31.22
508,1614387629,0.8042,0.6631,0.9814,-42.20,-37.74,33.41
509,1614392628,0.8145,0.6514,0.9824,-43.84,-38.60,35.18
510,1614397629,0.8384,0.6348,0.9883,-45.91,-39.09,36.71
511,1614402628,0.8613,0.6167,0.9902,-48.54,-39.45,38.05
512,1614407629,0.8589,0.6045,0.9878,-51.89,-39.82,39.02
513,1614412627,0.8501,0.5908,0.9858,-55.91,-40.06,40.00
514,1614417627,0.8433,0.5771,0.9873,-60.49,-40.43,40.67
515,1614422629,0.8340,0.5640,0.9878,-65.61,-40.73,41.22
516,1614427629,0.8271,0.5571,0.9912,-70.73,-40.98,41.59
517,1614432763,0.8242,0.5552,0.9873,-75.85,-40.85,41.71
518,1614437629,0.8203,0.5527,0.9814,-80.61,-40.79,41.65
519,1614442628,0.8193,0.5420,0.9751,-85.06,-40.67,41.34
520,1614447628,0.8252,0.5347,0.9648,-88.60,-40.30,41.16
521,1614452629,0.8442,0.5327,0.9663,-90.98,-40.06,40.85
522,1614457628,0.8584,0.5283,0.9800,-92.32,-39.39,40.43
523,1614462629,0.8550,0.5269,0.9814,-92.80,-38.66,39.88
524,1614467628,0.8569,0.5322,0.9912,-92.99,-37.93,39.21
525,1614472629,0.8677,0.5352,0.9893,-93.23,-37.01,38.66
526,1614477629,0.8740,0.5381,1.0010,-94.02,-36.16,37.99
527,1614482628,0.8618,0.5459,0.9966,-95.37,-35.91,37.44
528,1614487629,0.8418,0.5469,0.9941,-97.87,-35.49,36.89
529,1614492628,0.8301,0.5547,0.9980,-101.04,-35.67,36.40
530,1614497629,0.8208,0.5488,1.0063,-104.88,-35.61,35.91
531,1614502627,0.8110,0.5474,1.0117,-108.41,-35.98,35.67
532,1614507628,0.8071,0.5386,1.0112,-114.09,-36.04,35.24
533,1614512629,0.8022,0.5371,1.0200,-119.21,-36.46,35.06
534,1614517628,0.7993,0.5405,1.0190,-123.60,-36.65,35.00
535,1614522627,0.7959,0.5381,1.0288,-129.15,-36.95,34.88
536,1614527629,0.7842,0.5366,1.0273,-135.98,-37.26,34.82
537,1614532629,0.7832,0.5308,1.0225,-140.49,-37.38,35.00
538,1614537627,0.7769,0.5288,1.0244,-147.01,-37.62,35.55
539,1614542637,0.7676,0.5400,1.0225,-152.07,-37.87,35.85
540,1614547671,0.7646,0.5571,1.0229,-156.52,-37.93,36.28
541,1614552628,0.7705,0.5625,1.0225,-159.39,-38.05,36.40
542,1614557627,0.7876,0.5664,1.0171,-162.20,-38.23,36.71
543,1614562628,0.7954,0.5674,1.0229,-164.09,-38.66,37.38
544,1614567629,0.8013,0.5669,1.0161,-164.27,-39.02,37.68
545,1614572629,0.8174,0.5781,1.0098,-163.41,-39.63,38.35
546,1614577629,0.8237,0.5732,1.0078,-161.95,-40.12,38.96
547,1614582628,0.8311,0.5767,1.0054,-159.63,-40.85,39.76
548,1614587628,0.8242,0.5889,1.0054,-156.22,-41.65,40.61
549,1614593159,0.8237,0.5884,1.0020,-153.66,-42.20,41.28
550,1614597629,0.8208,0.5884,0.9976,-152.20,-42.62,41.71
551,1614602628,0.8188,0.5747,0.9854,-151.46,-42.87,42.38
552,1614607628,0.8184,0.5640,0.9717,-152.38,-43.35,43.23
553,1614612629,0.8130,0.5596,0.9604,-154.51,-43.72,43.72
554,1614617629,0.8110,0.5498,0.9556,-157.20,-43.96,44.15
555,1614622629,0.8154,0.5303,0.9399,-162.13,-44.21,44.51
556,1614627630,0.8169,0.5259,0.9385,-165.98,-44.39,44.82
557,1614632627,0.8218,0.5186,0.9302,-172.20,-44.57,45.06
558,1614637629,0.8174,0.5151,0.9082,-177.62,-44.88,44.88
559,1614642629,0.8184,0.5103,0.9097,-181.77,-45.00,44.76
560,1614647627,0.8301,0.5161,0.8975,-186.52,-45.12,44.57
561,1614652627,0.8413,0.5068,0.8994,-190.43,-45.43,44.27
562,1614657630,0.8521,0.5059,0.8867,-193.35,-45.55,44.02
563,1614662629,0.8452,0.5005,0.8872,-194.51,-45.91,44.02
564,1614667629,0.8398,0.5000,0.8804,-194.70,-45.85,44.09
565,1614672627,0.8350,0.5044,0.8701,-194.39,-46.04,44.21
566,1614677629,0.8364,0.5059,0.8638,-193.48,-46.22,44.21
567,1614682628,0.8350,0.5107,0.8604,-192.62,-46.46,44.21
568,1614687630,0.8330,0.5063,0.8457,-191.89,-46.83,44.33
569,1614692628,0.8320,0.5039,0.8281,-191.77,-47.07,44.33
570,1614697629,0.8345,0.5000,0.8120,-192.07,-47.80,44.39
571,1614702628,0.8428,0.4961,0.7969,-192.93,-48.23,44.39
572,1614707629,0.8530,0.4927,0.7866,-194.21,-48.72,44.39
573,1614712629,0.8638,0.4932,0.7861,-195.85,-49.45,44.33
574,1614717629,0.8628,0.4927,0.7769,-197.87,-50.00,44.39
575,1614722630,0.8467,0.4917,0.7671,-200.37,-50.67,44.27
576,1614727629,0.8389,0.4888,0.7480,-203.11,-51.46,44.27
577,1614732629,0.8301,0.4795,0.7368,-206.10,-52.38,44.51
578,1614737629,0.8218,0.4736,0.7271,-208.72,-53.35,44.88
579,1614742632,0.8135,0.4702,0.7212,-210.85,-54.33,45.12
580,1614747628,0.8203,0.4585,0.7056,-212.01,-55.18,45.61
581,1614752629,0.8306,0.4390,0.6997,-212.32,-55.91,46.16
582,1614757630,0.8413,0.4370,0.6855,-211.95,-56.71,46.83
583,1614762629,0.8311,0.4224,0.6709,-211.04,-57.38,47.56
584,1614767629,0.8286,0.4033,0.6562,-209.70,-57.62,48.35
585,1614772629,0.8315,0.3916,0.6484,-208.41,-57.80,49.09
586,1614777629,0.8384,0.3867,0.6299,-207.44,-57.87,49.76
587,1614782629,0.8481,0.3784,0.6201,-207.01,-58.05,50.37
588,1614787629,0.8462,0.3770,0.6099,-207.07,-58.17,50.67
589,1614792629,0.8413,0.3730,0.6050,-208.11,-58.17,51.10
590,1614797629,0.8296,0.3682,0.5879,-210.24,-58.29,51.34
591,1614802629,0.8213,0.3716,0.5718,-213.23,-58.60,51.71
592,1614807629,0.8037,0.3677,0.5483,-216.77,-59.02,51.89
593,1614812629,0.8096,0.3540,0.5327,-220.00,-59.45,51.95
594,1614817630,0.8174,0.3398,0.5317,-222.68,-60.00,52.13
595,1614822627,0.8179,0.3198,0.5312,-224.02,-60.49,52.38
596,1614827629,0.8130,0.3081,0.5186,-224.51,-60.67,52.56
597,1614832631,0.8027,0.2993,0.4937,-224.02,-60.98,52.62
598,1614837628,0.8276,0.2827,0.4756,-222.68,-61.52,52.56
599,1614842629,0.8545,0.2773,0.4634,-221.40,-61.95,52.50
600,1614847629,0.8608,0.2520,0.4443,-219.57,-62.20,52.13
601,1614852629,0.8438,0.2417,0.4287,-217.80,-62.62,52.01
602,1614857629,0.8237,0.2339,0.4062,-216.34,-63.17,51.77
603,1614862630,0.8271,0.2222,0.3975,-215.24,-63.72,51.28
604,1614867629,0.8379,0.2119,0.3975,-214.57,-64.15,50.91
605,1614872629,0.8428,0.2285,0.3970,-214.51,-64.76,50.37
606,1614877630,0.8242,0.2500,0.3926,-214.94,-65.06,49.21
607,1614882686,0.8130,0.2363,0.3789,-215.79,-65.61,47.87
608,1614887631,0.8311,0.2178,0.3564,-216.28,-66.28,46.83
609,1614892628,0.8296,0.2124,0.3452,-216.34,-66.95,46.10
610,1614897629,0.8154,0.2017,0.3340,-215.85,-68.05,44.76
611,1614902656,0.8154,0.1997,0.3296,-215.43,-68.96,44.02
612,1614907629,0.8184,0.1782,0.3096,-214.76,-69.76,43.05
613,1614912629,0.8188,0.1626,0.2876,-214.15,-70.67,42.13
614,1614917710,0.8096,0.1504,0.2520,-213.72,-71.83,41.04
615,1614922631,0.8086,0.1445,0.2451,-213.11,-72.56,40.37
616,1614927628,0.8110,0.1479,0.2388,-212.38,-73.41,39.27
617,1614932629,0.8076,0.1641,0.2456,-211.46,-74.09,38.11
618,1614937628,0.8140,0.1729,0.2368,-210.30,-74.70,36.89
619,1614942629,0.7954,0.1641,0.2251,-209.09,-75.43,35.55
620,1614947629,0.7739,0.1553,0.2065,-207.62,-76.40,34.63
621,1614953163,0.7559,0.1558,0.1890,-205.18,-77.87,33.66
622,1614957629,0.7568,0.1592,0.1807,-202.74,-78.96,33.11
623,1614962628,0.7588,0.1636,0.1611,-199.02,-80.30,32.38
624,1614967629,0.7720,0.1631,0.1387,-194.09,-81.77,31.77
625,1614972627,0.7935,0.1577,0.1240,-187.74,-83.11,31.10
626,1614977628,0.8008,0.1514,0.1035,-180.67,-84.45,30.55
627,1614982629,0.7954,0.1377,0.0864,-173.17,-85.98,30.12
628,1614987628,0.7812,0.1416,0.0742,-166.10,-87.26,29.82
629,1614992629,0.7822,0.1387,0.0547,-160.00,-88.66,29.63
630,1614997628,0.7739,0.1240,0.0327,-155.73,-89.88,29.45
631,1615002627,0.7437,0.1113,0.0161,-153.54,-91.28,29.45
632,1615007627,0.7070,0.1045,0.0010,-153.23,-92.26,29.70
633,1615012627,0.6938,0.1030,-0.0151,-154.82,-93.23,29.82
634,1615018139,0.6943,0.0879,-0.0225,-158.84,-94.02,30.06
635,1615022629,0.6987,0.0850,-0.0337,-162.38,-94.57,30.18
636,1615027627,0.6982,0.0767,-0.0479,-167.56,-94.76,30.24
637,1615032629,0.6860,0.0693,-0.0723,-172.74,-94.63,30.30
638,1615037633,0.6826,0.0649,-0.0952,-177.07,-94.57,30.37
639,1615042792,0.7168,0.0728,-0.1118,-179.76,-94.15,30.30
640,1615047631,0.7500,0.0801,-0.1230,-179.57,-93.90,30.12
641,1615052631,0.7676,0.0825,-0.1279,-177.38,-93.60,30.00
642,1615057628,0.7593,0.0884,-0.1440,-173.41,-92.62,29.76
643,1615062629,0.7617,0.1006,-0.1479,-168.72,-91.71,29.70
644,1615067629,0.7661,0.0991,-0.1709,-164.02,-90.98,29.88
645,1615072629,0.7339,0.0840,-0.1885,-159.82,-90.24,30.18
646,1615077629,0.7236,0.0996,-0.2051,-156.46,-89.51,30.85
647,1615082629,0.7222,0.1045,-0.2017,-154.09,-89.02,31.83
648,1615087630,0.7158,0.1064,-0.2168,-152.68,-88.54,32.80
649,1615092627,0.7075,0.1055,-0.2344,-151.77,-87.99,34.02
650,1615097629,0.6982,0.1094,-0.2407,-152.01,-87.62,35.06
651,1615102629,0.7090,0.1133,-0.2559,-153.17,-87.32,36.22
652,1615107629,0.6958,0.1094,-0.2637,-155.18,-87.01,37.62
653,1615112629,0.6689,0.1260,-0.2637,-157.74,-86.71,38.78
654,1615117629,0.6523,0.1348,-0.2656,-160.61,-86.10,39.94
655,1615122629,0.6523,0.1460,-0.2700,-163.78,-85.79,41.04
656,1615127629,0.6562,0.1582,-0.2671,-166.46,-85.18,42.26
657,1615132628,0.6787,0.1743,-0.2754,-168.66,-84.94,43.35
658,1615137629,0.6797,0.1807,-0.2739,-170.49,-84.70,44.63
659,1615142629,0.6831,0.1895,-0.2754,-171.46,-84.57,45.91
660,1615147629,0.6987,0.2021,-0.2822,-171.71,-84.94,47.32
661,1615152629,0.7271,0.2114,-0.2891,-171.10,-85.43,48.90
662,1615157628,0.7417,0.2148,-0.3071,-169.94,-86.16,50.37
663,1615162629,0.7344,0.2075,-0.3276,-168.23,-87.26,51.89
664,1615167629,0.7202,0.1914,-0.3594,-165.67,-88.60,53.35
665,1615172629,0.7227,0.1719,-0.3804,-162.13,-90.37,54.88
666,1615177628,0.7246,0.1567,-0.4019,-157.20,-91.77,56.16
667,1615182627,0.7144,0.1489,-0.4321,-151.34,-93.48,57.32
668,1615187629,0.6987,0.1489,-0.4634,-145.12,-95.06,58.23
669,1615192629,0.6831,0.1323,-0.4878,-139.45,-96.46,58.78
670,1615197631,0.6763,0.1255,-0.5229,-134.57,-97.62,59.02
671,1615202629,0.6792,0.1357,-0.5376,-131.52,-98.66,58.66
672,1615207628,0.6899,0.1440,-0.5562,-130.30,-99.27,57.80
673,1615212629,0.6968,0.1357,-0.5693,-131.16,-99.82,56.71
674,1615217628,0.6748,0.1196,-0.5864,-133.84,-100.18,55.43
675,1615222629,0.6372,0.1099,-0.6167,-138.17,-100.43,54.15
676,1615227628,0.6152,0.1055,-0.6460,-143.17,-100.73,52.87
677,1615232629,0.6284,0.1030,-0.6611,-147.38,-101.28,51.40
678,1615237631,0.6768,0.1045,-0.6812,-149.70,-101.71,50.06
679,1615242926,0.7148,0.1045,-0.6938,-149.82,-102.07,48.66
680,1615247630,0.7080,0.1030,-0.7100,-148.35,-102.20,47.93
681,1615252629,0.7280,0.1201,-0.7227,-145.24,-102.13,47.13
682,1615257629,0.7705,0.1401,-0.7363,-140.91,-101.89,46.52
683,1615262629,0.7808,0.1602,-0.7500,-135.91,-101.28,46.10
684,1615267629,0.7593,0.1763,-0.7495,-130.98,-100.73,45.91
685,1615272629,0.7476,0.1860,-0.7593,-126.52,-99.76,45.91
686,1615277629,0.7554,0.1890,-0.7651,-122.93,-98.66,46.10
687,1615282629,0.7480,0.1987,-0.7773,-120.37,-97.68,46.52
688,1615287629,0.7192,0.2065,-0.7905,-119.33,-96.65,46.95
689,1615292629,0.6870,0.2207,-0.8008,-119.57,-95.85,47.26
690,1615297629,0.6743,0.2324,-0.7969,-120.91,-95.12,47.62
691,1615302628,0.6685,0.2446,-0.7939,-122.32,-94.51,47.87
692,1615307629,0.6504,0.2446,-0.8032,-123.41,-94.15,48.17
693,1615312628,0.6343,0.2573,-0.8027,-123.78,-93.78,48.66
694,1615317627,0.6440,0.2734,-0.7998,-122.99,-94.21,49.27
695,1615322643,0.6572,0.2969,-0.8291,-121.10,-94.09,49.94
696,1615327629,0.6250,0.3076,-0.8555,-117.74,-94.76,50.79
697,1615332629,0.6084,0.2998,-0.8794,-112.74,-95.43,52.13
698,1615337707,0.5566,0.3135,-0.8662,-106.71,-96.28,53.90
699,1615342628,0.5376,0.3140,-0.8496,-99.51,-96.59,55.98
700,1615347627,0.5298,0.3301,-0.8408,-92.01,-96.65,58.35
701,1615352632,0.5024,0.3442,-0.8452,-84.88,-96.46,60.67
702,1615357627,0.4922,0.3423,-0.8618,-78.72,-96.28,62.99
703,1615362627,0.4873,0.3320,-0.8760,-73.78,-95.91,65.24
704,1615367629,0.5044,0.3257,-0.8809,-70.30,-95.67,67.32
705,1615372629,0.5249,0.3188,-0.8867,-68.05,-95.37,69.33
706,1615377629,0.5078,0.3130,-0.9316,-67.50,-94.88,70.85
707,1615382629,0.5054,0.2793,-0.9404,-68.78,-94.39,72.13
708,1615387629,0.4912,0.2778,-0.9355,-71.52,-94.27,73.29
709,1615392629,0.4785,0.2798,-0.9375,-75.85,-93.84,73.84
710,1615397629,0.4580,0.2427,-0.9360,-81.34,-93.72,74.33
711,1615402629,0.4204,0.2446,-0.9727,-87.32,-93.17,74.94
712,1615407694,0.4272,0.2866,-0.9922,-92.99,-93.11,75.43
713,1615412629,0.4941,0.2583,-0.9814,-97.38,-92.99,75.67
714,1615417629,0.5044,0.1997,-0.9062,-96.89,-92.13,77.99
715,1615422627,0.3086,0.3530,-1.0586,-95.61,-91.59,79.27
716,1615427629,0.4141,0.3379,-1.1030,-93.66,-91.95,79.70
717,1615432629,0.5645,0.3228,-1.0479,-90.43,-91.89,80.49
718,1615437628,0.5586,0.3604,-0.9434,-86.16,-91.22,81.40
719,1615442629,0.5049,0.4072,-1.0029,-82.07,-90.43,82.07
720,1615447628,0.4863,0.3984,-1.0771,-78.84,-90.37,82.13
721,1615452631,0.4556,0.3579,-1.0342,-76.83,-90.18,82.13
722,1615457628,0.3887,0.3291,-1.0156,-75.55,-89.94,82.50
723,1615462629,0.3301,0.3325,-1.0669,-74.51,-90.06,82.62
724,1615467629,0.3223,0.3564,-1.0620,-74.21,-90.49,82.50
725,1615472629,0.3198,0.3672,-0.9844,-74.82,-90.43,82.01
726,1615477628,0.3101,0.3569,-0.9927,-76.28,-90.24,81.34
727,1615482629,0.3252,0.3481,-1.0654,-78.72,-91.22,80.18
728,1615487628,0.3535,0.3560,-1.0659,-82.07,-92.32,78.60
729,1615492629,0.3926,0.3662,-1.0088,-86.10,-93.66,76.71
730,1615497628,0.3877,0.3750,-1.0483,-89.76,-94.82,74.51
731,1615502629,0.3501,0.3462,-1.1260,-91.71,-96.46,72.32
732,1615507628,0.2754,0.3184,-1.1060,-91.28,-97.93,70.67
733,1615512627,0.2192,0.3115,-1.0410,-88.11,-98.78,69.33
734,1615517629,0.1968,0.3149,-1.0527,-83.23,-99.21,68.17
735,1615522629,0.1846,0.3042,-1.0728,-77.68,-99.70,66.65
736,1615527628,0.1738,0.2910,-1.0293,-72.87,-100.00,65.18
737,1615532629,0.1738,0.2920,-0.9688,-69.63,-99.70,63.41
738,1615537628,0.1831,0.2837,-0.9761,-68.35,-99.45,61.40
739,1615542629,0.1914,0.2817,-0.9902,-69.27,-99.51,58.90
740,1615547628,0.2021,0.2754,-0.9468,-71.95,-99.27,56.16
741,1615552655,0.2251,0.2710,-0.8901,-75.91,-99.27,52.99
742,1615557627,0.2300,0.2642,-0.8901,-80.49,-99.33,49.70
743,1615562629,0.2310,0.2593,-0.8936,-85.79,-99.76,45.91
744,1615567628,0.2231,0.2334,-0.8623,-90.61,-100.24,42.32
745,1615572631,0.1553,0.2124,-0.8281,-93.90,-100.91,38.96
746,1615577628,0.0967,0.2290,-0.8452,-94.76,-102.01,35.61
747,1615582629,0.1094,0.2109,-0.8545,-92.56,-103.41,32.50
748,1615587628,0.0815,0.2812,-0.8013,-88.78,-104.45,29.51
749,1615592631,0.0845,0.2461,-0.8452,-85.12,-105.91,25.79
750,1615597628,0.0747,0.1616,-0.8813,-81.40,-107.93,21.77
751,1615602629,-0.0093,0.0737,-0.8159,-77.20,-110.12,17.07
752,1615607628,-0.1479,-0.1113,-0.6943,-71.40,-112.56,10.61
753,1615612629,-0.5190,-0.8984,-0.4150,-58.41,-117.07,-1.52
754,1615617628,-0.3320,-0.9351,-0.3779,-31.46,-127.74,-26.46
755,1615622629,0.0508,-0.1006,-0.6416,-27.07,-133.05,-43.29
756,1615627628,-0.0547,0.1694,-0.7979,-43.11,-135.30,-53.23
757,1615632629,-0.1450,0.2236,-0.9043,-66.59,-136.89,-61.40
758,1615637628,-0.2949,0.2471,-0.9419,-90.43,-138.17,-68.05
759,1615642629,-0.4966,0.3008,-0.9409,-110.73,-138.84,-73.78
760,1615647628,-0.6182,0.3350,-0.9316,-125.30,-139.21,-78.90
761,1615652631,-0.6807,0.3232,-0.9111,-133.78,-138.84,-83.72
762,1615657628,-0.7246,0.2983,-0.8735,-136.59,-138.11,-88.05
763,1615662629,-0.7134,0.2896,-0.8481,-135.24,-137.56,-92.44
764,1615667628,-0.6572,0.3032,-0.8403,-131.16,-137.26,-97.32
765,1615672629,-0.5898,0.3242,-0.7725,-126.10,-136.89,-102.68
766,1615677628,-0.5049,0.3262,-0.7163,-120.91,-136.10,-108.72
767,1615682629,-0.4395,0.3320,-0.7261,-116.65,-135.43,-115.18
768,1615687628,-0.3691,0.3218,-0.7495,-114.21,-135.30,-122.26
769,1615692629,-0.2915,0.2964,-0.7114,-113.17,-135.24,-129.88
770,1615697628,-0.2378,0.2856,-0.6694,-113.54,-135.06,-137.87
771,1615702629,-0.1982,0.3076,-0.6685,-115.06,-134.82,-146.52
772,1615707628,-0.1416,0.3276,-0.6821,-117.87,-135.00,-155.61
773,1615712630,-0.0962,0.3550,-0.6758,-121.46,-135.49,-167.07
774,1615717628,-0.0723,0.3877,-0.6460,-123.84,-135.91,-174.88
775,1615722629,-0.0767,0.4189,-0.6660,-125.85,-136.71,-184.70
776,1615727628,-0.1172,0.4541,-0.6685,-126.95,-137.74,-194.09
777,1615732629,-0.1909,0.4712,-0.6558,-127.01,-138.66,-203.23
778,1615737628,-0.2686,0.5142,-0.6719,-126.52,-139.94,-211.83
779,1615742629,-0.3594,0.5649,-0.6890,-125.67,-141.59,-220.37
780,1615747628,-0.4604,0.6055,-0.6978,-124.76,-143.17,-228.66
781,1615752629,-0.5806,0.6191,-0.7070,-123.60,-144.76,-236.83
782,1615757628,-0.6924,0.6396,-0.7158,-122.80,-146.46,-244.45
783,1615762629,-0.7891,0.6689,-0.7051,-122.68,-148.23,-252.13
784,1615767628,-0.8716,0.6899,-0.6831,-123.66,-149.57,-259.82
785,1615772629,-0.9419,0.7065,-0.6743,-126.10,-150.79,-267.56
786,1615777628,-1.0024,0.7168,-0.6948,-129.76,-152.26,-275.73
787,1615782629,-1.0493,0.7251,-0.6963,-134.27,-154.27,-284.09
788,1615787629,-1.0991,0.7412,-0.6670,-139.51,-156.10,-292.80
789,1615792629,-1.1250,0.7637,-0.6504,-144.45,-158.11,-302.20
790,1615797628,-1.1343,0.7861,-0.6309,-148.78,-160.18,-312.01
791,1615802629,-1.1255,0.8105,-0.6108,-152.13,-162.26,-322.26
792,1615807628,-1.1357,0.8247,-0.6030,-154.33,-164.27,-332.99
793,1615812628,-1.1680,0.8286,-0.6069,-154.94,-166.65,-343.84
794,1615817629,-1.2319,0.8359,-0.6089,-154.15,-169.39,-354.70
795,1615822629,-1.3252,0.8418,-0.5967,-151.89,-172.32,-365.79
796,1615827629,-1.4292,0.8794,-0.5879,-148.48,-175.67,-377.13
797,1615832629,-1.5400,0.9351,-0.5723,-144.09,-179.15,-388.84
798,1615837629,-1.6680,1.0010,-0.5547,-138.23,-183.05,-401.34
799,1615842629,-1.7720,1.0474,-0.5410,-131.46,-187.20,-414.15
800,1615847630,-1.8818,1.0928,-0.5293,-123.84,-191.46,-427.50
801,1615852627,-2.0269,1.1558,-0.5425,-115.61,-196.34,-441.28
802,1615857627,-2.2109,1.2383,-0.5767,-107.32,-201.89,-455.73
803,1615862627,-2.4160,1.3213,-0.6099,-99.21,-208.11,-470.85
804,1615867629,-2.6250,1.3975,-0.6436,-91.10,-215.18,-487.01
805,1615872629,-2.8477,1.4521,-0.6899,-82.74,-222.87,-503.78
806,1615877629,-3.1099,1.4980,-0.7056,-74.02,-231.16,-521.04
807,1615882627,-3.3892,1.5190,-0.7446,-64.63,-239.57,-538.54
808,1615887630,-3.7100,1.5303,-0.7593,-54.57,-248.23,-555.85
809,1615892627,-4.1406,1.5581,-0.7676,-43.29,-256.59,-572.80
810,1615897773,-4.6553,1.5850,-0.7607,-31.10,-264.27,-589.63
811,1615902671,-5.2217,1.6030,-0.7397,-18.23,-270.55,-605.85
812,1615907628,-5.9009,1.5981,-0.7163,-5.79,-275.30,-621.71
813,1615912629,-6.7183,1.6235,-0.7129,4.76,-278.23,-637.13
814,1615917628,-7.5605,1.6587,-0.7197,11.77,-278.35,-652.62
815,1615922649,-8.2808,1.6362,-0.8179,13.23,-275.55,-668.78
816,1615927629,-8.7021,1.6133,-1.0127,6.40,-269.63,-686.22
817,1615932629,-8.9160,1.6641,-1.2739,-11.10,-259.88,-706.83
818,1615937629,-8.9463,1.7817,-1.5098,-41.10,-245.12,-733.84
819,1615942629,-8.7959,1.9570,-1.7051,-83.29,-222.56,-769.09
820,1615947629,-8.5967,2.1221,-1.8926,-136.10,-189.45,-813.96
821,1615952629,-8.4609,2.1733,-1.9956,-194.51,-143.17,-867.62
822,1615957629,-8.4214,2.2798,-2.1260,-251.95,-81.77,-927.62
823,1615962627,-8.5234,2.4604,-2.3257,-303.11,-4.94,-992.44
824,1615967630,-8.8345,2.7021,-2.5669,-341.65,85.37,-1059.15
825,1615972865,-9.3584,2.9385,-2.7783,-361.52,209.88,-1137.50
826,1615977629,-9.9087,3.1719,-2.8291,-354.39,299.51,-1186.52
827,1615982629,-10.7817,3.5366,-2.8857,-321.46,414.45,-1243.23
828,1615987627,-11.7993,3.9351,-2.9199,-268.72,527.56,-1294.76
829,1615992629,-12.9458,4.3486,-2.9023,-206.52,633.84,-1341.22
830,1615997629,-14.2329,4.8809,-2.8169,-138.96,730.49,-1383.90
831,1616002629,-15.5273,5.4707,-2.6304,-73.66,816.22,-1424.82
832,1616007628,-15.9844,6.0708,-2.4111,-18.54,890.79,-1465.73
833,1616012629,-15.9995,6.7397,-2.3472,25.12,954.09,-1506.89
834,1616017629,-16.0000,7.4448,-1.8579,52.13,1008.72,-1546.59
835,1616022980,-16.0000,7.6357,-1.2871,67.32,1064.21,-1582.50
836,1616027629,-16.0000,7.8013,-0.9678,65.24,1095.12,-1590.30
837,1616032629,-16.0000,8.4409,-0.4834,43.60,1126.95,-1578.84
838,1616037629,-16.0000,9.3389,0.5542,6.89,1156.04,-1544.45
839,1616042629,-16.0000,9.8462,1.8110,-34.45,1187.80,-1488.48
840,1616047629,-16.0000,10.3706,2.6987,-83.35,1222.99,-1413.90
841,1616053039,-16.0000,10.6523,3.4580,-169.15,1270.61,-1305.85
842,1616057629,-16.0000,10.6226,4.0981,-250.73,1307.44,-1224.45
843,1616062628,-16.0000,10.2661,4.8594,-392.87,1362.87,-1111.34
844,1616067627,-16.0000,9.7891,5.2393,-580.98,1427.38,-982.74
845,1616072627,-16.0000,9.2466,5.7354,-811.28,1498.96,-834.76
846,1616077627,-16.0000,8.4565,6.3350,-1070.37,1572.93,-661.89
847,1616082627,-16.0000,7.3994,6.7383,-1340.30,1636.34,-460.24
848,1616087629,-15.2529,6.2549,7.0713,-1595.30,1674.27,-230.55
849,1616092629,-14.0718,5.0371,7.2437,-1809.76,1673.96,19.51
850,1616097629,-13.4067,4.2041,6.9351,-1979.88,1625.00,275.00
851,1616102628,-12.5723,3.5015,6.1699,-1998.05,1493.54,562.01
852,1616107629,-11.8281,3.1196,5.4507,-1998.05,1363.23,730.12
853,1616112629,-10.5972,2.5059,4.7451,-1998.05,1160.18,906.34
854,1616117629,-9.5161,2.2778,4.3887,-1998.05,928.17,1038.90
855,1616122630,-8.9995,2.0869,3.9717,-1998.05,690.49,1124.51
856,1616127629,-9.0015,2.5371,3.4917,-1887.38,470.30,1160.49
857,1616132629,-8.9355,2.7998,2.9912,-1554.51,288.41,1153.05
858,1616137629,-9.0444,2.8228,2.6484,-1184.76,153.41,1113.35
859,1616142629,-9.1372,2.6548,1.5645,-830.85,53.78,1054.45
860,1616147629,-9.3477,2.3564,1.1855,-538.11,-18.72,985.06
861,1616152629,-9.3047,1.7705,1.2505,-322.50,-72.26,912.93
862,1616157629,-8.9399,1.0439,0.7974,-180.91,-118.78,843.72
863,1616163044,-8.3730,0.3081,0.1064,-94.88,-177.62,767.38
864,1616167630,-8.0000,-0.1475,-0.3149,-77.01,-221.40,720.73
865,1616172629,-7.6787,-0.4521,-0.2393,-81.28,-276.04,667.74
866,1616177629,-7.5771,-0.6787,-0.0586,-92.87,-328.11,620.49
867,1616182629,-7.5981,-0.8423,0.1816,-94.51,-374.09,579.94
868,1616187629,-7.4224,-0.8506,0.5776,-84.45,-410.67,544.94
869,1616192628,-6.9692,-0.7905,0.8374,-69.39,-437.38,513.60
870,1616197633,-6.5713,-0.6362,0.8647,-55.24,-456.28,484.33
871,1616202629,-6.4419,-0.4941,0.9243,-42.56,-468.72,456.65
872,1616207629,-6.4419,-0.3950,1.1489,-27.99,-473.54,430.73
873,1616212629,-6.2021,-0.3447,1.2788,-8.48,-471.52,406.95
874,1616217628,-5.7319,-0.2646,1.2153,17.26,-464.39,385.61
875,1616222630,-5.2764,-0.1470,1.1938,48.29,-453.41,366.10
876,1616227628,-4.8916,0.0200,1.2480,82.74,-437.99,347.80
877,1616232629,-4.4858,0.2095,1.2207,119.09,-420.00,329.94
878,1616237628,-4.1084,-0.0249,0.9834,153.35,-400.12,310.91
879,1616242627,-3.7305,0.2881,0.9883,183.23,-379.70,292.80
880,1616247629,-3.4829,0.5132,1.1245,213.84,-358.60,275.91
881,1616252629,-3.2090,0.8267,1.0776,239.39,-337.74,259.09
882,1616257629,-2.9058,1.1206,0.9346,256.71,-318.66,242.93
883,1616262629,-2.7021,1.2461,0.9766,262.62,-300.00,228.35
884,1616267630,-2.6265,1.2158,1.0312,254.51,-281.16,216.28
885,1616272627,-2.6401,1.0894,0.8726,232.20,-264.27,206.59
886,1616277629,-2.7676,0.9683,0.6367,196.22,-250.24,198.78
887,1616282629,-2.9688,0.9634,0.5522,147.80,-238.29,192.13
888,1616287627,-3.1470,1.0449,0.4600,89.76,-227.93,186.28
889,1616292631,-3.1704,1.1592,0.2871,27.32,-219.82,181.22
890,1616297897,-3.0723,1.2485,0.2046,-32.07,-213.11,177.20
891,1616302952,-2.8926,1.2393,0.2168,-90.24,-204.51,174.45
892,1616307629,-2.7769,1.3105,0.2637,-117.01,-197.62,173.05
893,1616312630,-2.6567,1.3154,0.1348,-136.22,-189.51,172.26
894,1616317629,-2.5234,1.3369,0.0435,-139.15,-181.59,172.13
895,1616322629,-2.3970,1.3677,0.0435,-126.40,-172.80,173.11
896,1616327629,-2.3291,1.4565,0.0435,-98.72,-163.35,175.37
897,1616332627,-2.3032,1.5059,0.0000,-58.35,-153.11,178.35
898,1616337627,-2.2231,1.4399,0.0068,-8.90,-142.01,182.50
899,1616342631,-2.0659,1.3159,0.0625,43.96,-130.37,187.62
900,1616347628,-1.9414,1.1665,0.0781,94.09,-118.41,192.68
901,1616352629,-1.9038,1.0093,0.0513,135.00,-107.38,197.38
902,1616357629,-1.9155,0.9102,0.0952,162.20,-96.77,200.98
903,1616362629,-1.8843,0.8823,0.1982,173.66,-86.28,202.38
904,1616367628,-1.7607,0.8584,0.2583,169.70,-76.34,201.59
905,1616372629,-1.6416,0.8516,0.3003,152.20,-66.83,199.09
906,1616377628,-1.5742,0.8643,0.3755,123.29,-57.80,194.94
907,1616382629,-1.5122,0.8677,0.4644,86.71,-49.45,189.09
908,1616387628,-1.4258,0.8687,0.5005,45.18,-41.83,182.07
909,1616392629,-1.2993,0.8794,0.5317,1.95,-35.12,174.21
910,1616397628,-1.1943,0.8926,0.5684,-39.88,-29.15,165.91
911,1616402629,-1.1396,0.9399,0.5859,-77.80,-23.66,157.38
912,1616407628,-1.1123,0.9849,0.5547,-109.27,-19.21,149.02
913,1616412629,-1.0586,1.0107,0.5376,-132.38,-15.49,141.16
914,1616417628,-0.9658,1.0210,0.5498,-146.52,-11.95,134.09
915,1616422629,-0.8574,1.0029,0.5669,-151.77,-8.54,127.93
916,1616427628,-0.8022,0.9844,0.5654,-149.39,-5.30,123.11
917,1616432627,-0.7900,0.9678,0.5688,-140.79,-2.13,119.27
918,1616437986,-0.7808,0.9624,0.5762,-125.06,1.46,115.91
919,1616442629,-0.7539,0.9458,0.5762,-113.05,3.66,114.21
920,1616447628,-0.7349,0.9204,0.5596,-97.99,5.67,112.68
921,1616453093,-0.7129,0.8896,0.5259,-81.89,7.32,111.40
922,1616457629,-0.6812,0.8853,0.5210,-73.11,7.68,110.61
923,1616462629,-0.6133,0.8496,0.5098,-64.45,7.38,109.51
924,1616467629,-0.5449,0.8149,0.5039,-57.80,6.46,108.11
925,1616472628,-0.4692,0.7676,0.5278,-52.56,5.18,106.46
926,1616477629,-0.3882,0.7124,0.5464,-47.56,3.54,104.70
927,1616482703,-0.3184,0.6699,0.5518,-43.17,1.65,102.93
928,1616487628,-0.2520,0.6426,0.5601,-39.02,-0.18,100.79
929,1616492892,-0.2002,0.6201,0.5723,-35.55,-2.32,98.48
930,1616497630,-0.1611,0.6094,0.5688,-32.74,-4.39,95.85
931,1616502628,-0.1304,0.6006,0.5713,-30.49,-6.71,93.23
932,1616507629,-0.1206,0.5947,0.5732,-28.54,-8.96,90.49
933,1616512629,-0.1104,0.5894,0.5791,-26.71,-11.22,88.29
934,1616517629,-0.0933,0.5981,0.5918,-25.06,-13.41,85.67
935,1616522629,-0.0596,0.6113,0.5977,-23.54,-15.30,83.05
936,1616527629,-0.0498,0.6299,0.5928,-22.38,-16.89,81.04
937,1616532629,-0.0693,0.6494,0.5850,-21.77,-18.66,79.21
938,1616537629,-0.0977,0.6592,0.5742,-21.77,-20.55,77.87
939,1616542629,-0.1162,0.6753,0.5718,-22.07,-22.56,76.77
940,1616547629,-0.1221,0.6768,0.5703,-22.32,-24.70,75.79
941,1616552629,-0.1147,0.6807,0.5776,-22.26,-26.59,75.06
942,1616557629,-0.1021,0.6802,0.5894,-21.65,-28.54,74.45
943,1616562630,-0.0908,0.6753,0.6001,-20.12,-30.18,73.90
944,1616567627,-0.0820,0.6763,0.6191,-17.87,-31.52,73.23
945,1616572630,-0.0811,0.6758,0.6372,-14.94,-32.93,72.56
946,1616577628,-0.0869,0.6807,0.6411,-11.52,-33.90,71.52
947,1616582629,-0.0874,0.6787,0.6489,-7.87,-35.00,70.37
948,1616587629,-0.0723,0.6631,0.6533,-4.02,-35.98,68.96
949,1616592629,-0.0547,0.6382,0.6616,-0.24,-36.59,67.68
950,1616597629,-0.0371,0.6187,0.6636,3.17,-37.32,66.46
951,1616602629,-0.0327,0.6123,0.6660,5.85,-37.99,65.12
952,1616608161,-0.0308,0.5977,0.6753,7.38,-38.90,63.54
953,1616612629,-0.0278,0.5786,0.6802,7.50,-39.45,62.50
954,1616617629,-0.0317,0.5811,0.6719,6.52,-40.12,61.04
955,1616622629,-0.0444,0.5879,0.6689,4.39,-40.91,59.33
956,1616627628,-0.0435,0.6084,0.6694,1.34,-41.71,57.38
957,1616632630,-0.0161,0.6099,0.6802,-1.83,-42.44,55.30
958,1616637628,0.0063,0.6260,0.6860,-4.82,-43.17,53.29
959,1616642629,0.0049,0.6504,0.6963,-7.50,-43.78,51.16
960,1616647628,-0.0015,0.6704,0.7095,-8.96,-44.27,48.96
961,1616652627,-0.0073,0.6729,0.7192,-9.88,-44.45,47.07
962,1616657629,-0.0220,0.6699,0.7227,-9.88,-44.70,45.30
963,1616662629,-0.0420,0.6665,0.7266,-9.39,-44.94,43.90
964,1616667630,-0.0566,0.6660,0.7319,-8.78,-45.12,42.68
965,1616672629,-0.0767,0.6641,0.7324,-7.99,-45.43,41.34
966,1616677629,-0.0781,0.6499,0.7334,-7.32,-45.73,40.24
967,1616682629,-0.0703,0.6343,0.7275,-6.34,-45.98,39.27
968,1616687629,-0.0581,0.6084,0.7290,-5.12,-46.04,38.35
969,1616692629,-0.0288,0.5776,0.7349,-3.23,-46.34,37.50
970,1616697629,0.0029,0.5625,0.7500,-1.04,-46.28,36.83
971,1616702627,0.0078,0.5581,0.7554,0.98,-46.04,36.28
972,1616707629,0.0117,0.5386,0.7520,2.99,-45.67,35.43
973,1616712629,0.0303,0.5249,0.7554,4.27,-45.37,34.88
974,1616717628,0.0410,0.5186,0.7568,4.70,-45.00,34.21
975,1616722629,0.0356,0.5220,0.7510,4.02,-44.63,33.78
976,1616727628,0.0210,0.5234,0.7456,2.07,-44.51,33.05
977,1616732630,0.0205,0.5317,0.7295,-1.04,-44.63,32.20
978,1616737628,0.0317,0.5386,0.7285,-4.94,-44.88,31.04
979,1616742629,0.0479,0.5337,0.7305,-9.02,-45.30,30.00
980,1616747629,0.0674,0.5278,0.7378,-13.29,-45.85,28.90
981,1616752631,0.0957,0.5132,0.7466,-17.20,-46.40,27.93
982,1616757629,0.1211,0.5132,0.7456,-20.79,-46.89,26.95
983,1616762629,0.1304,0.5254,0.7539,-24.15,-47.50,25.91
984,1616767628,0.1343,0.5249,0.7534,-26.95,-47.93,24.76
985,1616772629,0.1353,0.5342,0.7617,-28.96,-48.48,23.66
986,1616777629,0.1372,0.5376,0.7744,-29.82,-48.90,22.44
987,1616782647,0.1255,0.5371,0.7764,-29.33,-49.33,21.40
988,1616787628,0.1226,0.5391,0.7979,-27.50,-49.45,20.24
989,1616792629,0.1270,0.5435,0.8105,-24.33,-49.45,19.09
990,1616797628,0.1255,0.5410,0.8125,-20.30,-49.39,17.93
991,1616802629,0.1201,0.5352,0.8101,-16.04,-49.39,16.71
992,1616807629,0.1128,0.5303,0.7998,-11.77,-49.27,15.30
993,1616812629,0.1099,0.5186,0.7881,-8.17,-49.33,13.90
994,1616817628,0.1226,0.4980,0.7812,-5.24,-49.70,12.38
995,1616822629,0.1411,0.4785,0.7778,-3.11,-50.06,10.79
996,1616827628,0.1611,0.4629,0.7769,-2.13,-50.61,9.33
997,1616832629,0.1763,0.4463,0.7734,-2.07,-51.22,7.80
998,1616837628,0.1787,0.4390,0.7705,-2.80,-51.95,6.28
999,1616842627,0.1782,0.4297,0.7637,-4.51,-52.93,4.63
1000,1616847629,0.1841,0.4253,0.7690,-6.52,-54.09,2.93
1001,1616852629,0.1997,0.4233,0.7622,-8.96,-55.37,1.34
1002,1616857629,0.2212,0.4175,0.7715,-11.46,-56.59,-0.49
1003,1616862627,0.2402,0.4297,0.7720,-14.09,-57.68,-2.20
1004,1616867628,0.2422,0.4424,0.7666,-16.65,-58.96,-4.15
1005,1616872630,0.2280,0.4561,0.7612,-19.39,-60.18,-6.10
1006,1616877631,0.2139,0.4668,0.7603,-22.01,-61.52,-8.41
1007,1616882629,0.1987,0.4697,0.7534,-24.33,-62.80,-10.67
1008,1616887628,0.1914,0.4858,0.7476,-25.98,-63.96,-13.05
1009,1616892631,0.1812,0.4917,0.7451,-27.13,-65.18,-15.43
1010,1616897628,0.1670,0.4941,0.7466,-27.74,-66.04,-17.68
1011,1616902627,0.1484,0.4922,0.7412,-27.56,-66.71,-20.06
1012,1616907627,0.1289,0.4790,0.7339,-26.83,-67.44,-22.07
1013,1616912627,0.1152,0.4575,0.7310,-25.37,-67.99,-23.90
1014,1616917631,0.1167,0.4443,0.7271,-23.54,-68.41,-25.49
1015,1616922762,0.1182,0.4263,0.7236,-21.16,-68.84,-26.71
1016,1616927630,0.1211,0.4307,0.7188,-18.60,-69.15,-27.93
1017,1616932628,0.1240,0.4351,0.7090,-15.61,-69.39,-29.15
1018,1616937629,0.1270,0.4312,0.7100,-12.26,-69.70,-30.49
1019,1616942628,0.1406,0.4243,0.7051,-8.66,-69.88,-31.77
1020,1616947627,0.1479,0.4385,0.7109,-5.06,-69.82,-33.17
1021,1616952627,0.1514,0.4473,0.7119,-1.65,-69.88,-34.63
1022,1616957627,0.1318,0.4614,0.7046,1.34,-69.94,-36.46
1023,1616962627,0.1147,0.4761,0.6924,3.41,-70.00,-38.41
1024,1616967627,0.0981,0.4888,0.6855,4.51,-70.30,-40.61
1025,1616972627,0.0913,0.4937,0.6763,4.88,-70.67,-42.93
1026,1616977627,0.0854,0.4932,0.6733,4.33,-71.34,-45.43
1027,1616982632,0.0898,0.4883,0.6836,3.29,-72.01,-47.93
1028,1616987629,0.1006,0.4829,0.6875,2.01,-72.62,-50.43
1029,1616992629,0.1172,0.4678,0.6909,0.55,-73.23,-52.74
1030,1616997629,0.1328,0.4648,0.7046,-1.22,-73.90,-55.12
1031,1617002633,0.1445,0.4609,0.7148,-2.87,-74.57,-57.38
1032,1617007627,0.1499,0.4639,0.7104,-4.63,-75.06,-59.88
1033,1617012627,0.1543,0.4653,0.7188,-6.40,-75.61,-62.20
1034,1617017660,0.1548,0.4785,0.7114,-8.54,-76.22,-64.63
1035,1617022629,0.1416,0.4971,0.7100,-10.73,-76.89,-67.38
1036,1617027627,0.1211,0.5190,0.6948,-12.99,-77.62,-70.24
1037,1617032629,0.1035,0.5415,0.6865,-15.12,-78.48,-73.23
1038,1617037630,0.0957,0.5679,0.6758,-16.89,-79.27,-76.59
1039,1617042628,0.0947,0.5869,0.6763,-18.11,-80.18,-80.24
1040,1617047627,0.1011,0.6064,0.6724,-18.84,-80.98,-83.90
1041,1617052627,0.1050,0.6201,0.6680,-19.09,-81.77,-87.74
1042,1617057627,0.1016,0.6226,0.6621,-18.90,-82.44,-91.46
1043,1617062627,0.1060,0.6133,0.6519,-18.11,-83.48,-95.12
1044,1617067627,0.1143,0.6011,0.6431,-16.77,-84.33,-98.54
1045,1617072627,0.1318,0.5874,0.6519,-14.82,-85.24,-101.52
1046,1617077627,0.1470,0.5679,0.6553,-12.26,-86.10,-104.15
1047,1617082627,0.1650,0.5620,0.6553,-9.33,-87.07,-106.46
1048,1617087627,0.1797,0.5586,0.6567,-6.10,-87.99,-108.54
1049,1617092627,0.1836,0.5640,0.6641,-2.68,-88.96,-110.43
1050,1617097627,0.1821,0.5737,0.6558,0.43,-89.88,-112.26
1051,1617102627,0.1763,0.5952,0.6499,2.93,-90.98,-114.21
1052,1617107627,0.1670,0.6274,0.6411,4.51,-92.38,-116.34
1053,1617112627,0.1460,0.6694,0.6362,5.37,-93.72,-118.90
1054,1617118236,0.1123,0.7080,0.6221,5.18,-95.00,-122.32
1055,1617122929,0.0771,0.7271,0.6147,4.63,-96.22,-124.76
1056,1617127631,0.0601,0.7461,0.6006,3.72,-97.50,-127.93
1057,1617132628,0.0542,0.7686,0.5884,2.93,-98.96,-130.98
1058,1617137629,0.0459,0.7842,0.5815,2.20,-100.18,-134.09
1059,1617142628,0.0303,0.7876,0.5757,1.83,-101.46,-137.07
1060,1617147627,0.0142,0.7793,0.5684,1.83,-102.56,-139.82
1061,1617152856,-0.0044,0.7690,0.5547,2.20,-103.84,-142.07
1062,1617157629,-0.0244,0.7578,0.5479,2.99,-105.00,-143.90
1063,1617162628,-0.0435,0.7363,0.5361,4.51,-106.34,-145.24
1064,1617167629,-0.0537,0.7324,0.5386,6.77,-107.62,-145.98
1065,1617172627,-0.0503,0.7427,0.5435,9.94,-108.66,-146.59
1066,1617177627,-0.0425,0.7524,0.5527,13.48,-109.76,-147.13
1067,1617182629,-0.0376,0.7642,0.5562,17.56,-110.67,-147.56
1068,1617187629,-0.0332,0.7754,0.5596,21.52,-111.40,-147.87
1069,1617192959,-0.0376,0.7944,0.5605,25.24,-112.07,-148.11
1070,1617197631,-0.0439,0.8213,0.5601,27.99,-112.68,-148.78
1071,1617202628,-0.0581,0.8550,0.5483,29.45,-113.35,-149.39
1072,1617207631,-0.0693,0.8784,0.5400,29.33,-113.96,-150.37
1073,1617212627,-0.0957,0.9048,0.5273,27.68,-114.70,-151.46
1074,1617217629,-0.1250,0.9341,0.5010,25.00,-115.61,-152.80
1075,1617222628,-0.1465,0.9580,0.4824,21.28,-116.46,-154.27
1076,1617227627,-0.1597,0.9727,0.4722,17.26,-117.56,-155.73
1077,1617232631,-0.1509,0.9785,0.4600,13.48,-118.48,-157.13
1078,1617237629,-0.1450,0.9756,0.4673,10.06,-119.45,-158.41
1079,1617242628,-0.1406,0.9702,0.4570,7.56,-120.49,-159.09
1080,1617247629,-0.1440,0.9712,0.4561,5.73,-121.34,-159.63
1081,1617252627,-0.1445,0.9707,0.4609,4.94,-122.07,-159.82
1082,1617257629,-0.1377,0.9819,0.4468,4.70,-122.87,-159.94
1083,1617262628,-0.1333,0.9868,0.4565,5.12,-123.84,-159.76
1084,1617267629,-0.1426,1.0039,0.4502,6.10,-124.88,-159.39
1085,1617272627,-0.1587,1.0210,0.4536,7.62,-125.85,-159.15
1086,1617277629,-0.1782,1.0396,0.4414,9.57,-127.13,-158.96
1087,1617282629,-0.2007,1.0508,0.4326,11.95,-128.41,-158.78
1088,1617287629,-0.2197,1.0645,0.4341,14.82,-130.06,-158.78
1089,1617292627,-0.2095,1.0737,0.4292,17.99,-131.52,-158.84
1090,1617297629,-0.1968,1.0757,0.4214,21.71,-132.99,-158.96
1091,1617302628,-0.1743,1.0967,0.4282,25.43,-134.45,-159.15
1092,1617307629,-0.1611,1.1182,0.4292,29.21,-135.91,-159.57
1093,1617312629,-0.1646,1.1328,0.4204,32.50,-137.38,-159.94
1094,1617317629,-0.1729,1.1440,0.4160,35.37,-138.96,-160.55
1095,1617322628,-0.1934,1.1465,0.4155,37.68,-140.55,-160.91
1096,1617327629,-0.2104,1.1460,0.3970,39.33,-142.13,-161.22
1097,1617332627,-0.2222,1.1523,0.3989,40.49,-143.90,-161.40
1098,1617337630,-0.2192,1.1543,0.3911,40.91,-145.85,-161.34
1099,1617342628,-0.2163,1.1602,0.3882,40.91,-147.87,-161.22
1100,1617347630,-0.2065,1.1665,0.3813,40.37,-150.06,-161.04
1101,1617352627,-0.2031,1.1855,0.3774,39.51,-152.38,-160.73
1102,1617357627,-0.2012,1.2051,0.3677,38.35,-154.70,-160.43
1103,1617362627,-0.2051,1.2241,0.3750,37.26,-157.01,-160.30
1104,1617367631,-0.2148,1.2290,0.3652,36.52,-159.57,-160.30
1105,1617373093,-0.2065,1.2383,0.3604,36.34,-161.95,-160.24
1106,1617377629,-0.1968,1.2441,0.3628,37.01,-164.21,-160.18
1107,1617382629,-0.1885,1.2510,0.3618,38.11,-166.52,-160.00
1108,1617387627,-0.2017,1.2515,0.3667,40.00,-168.48,-159.88
1109,1617392872,-0.2207,1.2598,0.3613,42.26,-170.43,-159.45
1110,1617397631,-0.2319,1.2671,0.3599,45.06,-172.13,-159.02
