# skilleye imu stream v1
# device=xiao_esp32c6 imu=mpu6050 addr=0x68
# rate_hz=200 accel_range_g=16 gyro_range_dps=2000 dlpf_hz=94
# units: accel in g, gyro in deg/s, t_us in microseconds since boot (monotonic)
# no shared clock with the camera -- tap the racket once before each take
# so both recordings share a spike to align on
seq,t_us,ax,ay,az,gx,gy,gz
0,1572152629,0.6748,-0.6777,1.1138,35.12,-75.61,-70.12
1,1572157631,0.6968,-0.6328,1.0635,35.49,-81.10,-77.68
2,1572162629,0.7246,-0.5854,0.9961,36.10,-85.79,-84.15
3,1572167629,0.7476,-0.5415,0.9326,37.07,-89.33,-89.51
4,1572172628,0.7725,-0.4946,0.8696,38.41,-92.13,-93.96
5,1572177629,0.7842,-0.4409,0.7998,39.63,-93.96,-97.50
6,1572182628,0.7861,-0.3853,0.7290,40.43,-95.12,-100.18
7,1572187629,0.7725,-0.3433,0.6641,40.12,-95.30,-101.95
8,1572192628,0.7695,-0.2900,0.5942,38.66,-94.82,-102.99
9,1572197630,0.7769,-0.2339,0.5195,36.22,-93.54,-103.17
10,1572202628,0.8018,-0.1724,0.4502,32.68,-91.22,-102.62
11,1572207629,0.8228,-0.1191,0.3867,28.23,-88.35,-101.22
12,1572212629,0.8403,-0.0518,0.3208,23.17,-84.45,-98.96
13,1572217629,0.8564,0.0137,0.2588,17.80,-79.45,-95.91
14,1572222628,0.8672,0.0718,0.2002,12.93,-73.78,-91.89
15,1572227629,0.9004,0.1201,0.1533,8.54,-67.01,-86.83
16,1572232630,0.9277,0.1631,0.0981,5.55,-59.45,-80.67
17,1572237629,0.9482,0.1948,0.0425,4.02,-51.16,-73.29
18,1572242630,0.9575,0.2202,-0.0024,4.15,-41.89,-64.70
19,1572247629,0.9585,0.2510,-0.0454,5.73,-32.20,-54.94
20,1572252630,0.9648,0.2808,-0.0776,8.17,-21.77,-44.21
21,1572257629,0.9844,0.3062,-0.1113,11.40,-10.91,-32.80
22,1572262628,1.0146,0.3057,-0.1167,14.88,0.12,-20.73
23,1572267629,1.0498,0.2593,-0.0933,18.41,11.65,-8.17
24,1572272629,1.0889,0.2212,-0.0757,21.04,23.48,5.12
25,1572277630,1.1143,0.1968,-0.0635,22.13,35.00,18.35
26,1572282628,1.0996,0.1694,-0.0342,20.98,45.98,30.85
27,1572287629,1.0513,0.1392,0.0205,16.16,56.28,42.44
28,1572292629,1.0059,0.1367,0.0591,7.62,65.49,52.68
29,1572297629,0.9639,0.1143,0.1348,-4.45,73.90,61.28
30,1572302628,0.9395,0.0732,0.2158,-18.96,81.16,68.60
31,1572307629,0.9297,0.0366,0.2817,-35.00,86.16,74.70
32,1572312629,0.9272,-0.0229,0.3726,-51.16,92.01,79.63
33,1572317629,0.9082,-0.0781,0.4487,-67.01,95.98,83.66
34,1572322627,0.8809,-0.1294,0.5117,-81.59,98.35,85.91
35,1572327802,0.8564,-0.1821,0.5781,-94.45,99.39,87.07
36,1572332629,0.8228,-0.2466,0.6519,-104.63,98.66,88.29
37,1572337628,0.7720,-0.3223,0.7334,-111.46,96.59,87.26
38,1572342631,0.7144,-0.4033,0.8130,-113.96,92.62,85.18
39,1572347627,0.6455,-0.4966,0.9116,-112.01,87.44,81.22
40,1572352629,0.5654,-0.5776,0.9995,-105.85,80.67,75.98
41,1572357629,0.4819,-0.6543,1.0825,-95.79,72.20,69.21
42,1572362629,0.4395,-0.7314,1.1763,-82.56,62.68,60.85
43,1572367758,0.4219,-0.7852,1.2358,-67.32,52.07,51.16
44,1572372629,0.4136,-0.8271,1.2954,-50.73,40.85,40.30
45,1572377628,0.3989,-0.8604,1.3335,-34.15,28.96,28.54
46,1572382629,0.3965,-0.8804,1.3486,-18.11,16.95,16.28
47,1572387627,0.4141,-0.8735,1.3501,-3.72,4.76,3.84
48,1572392629,0.4492,-0.8550,1.3335,9.02,-7.13,-8.60
49,1572397628,0.4932,-0.8223,1.3066,19.21,-18.48,-20.67
50,1572402629,0.5161,-0.7881,1.2739,26.89,-29.21,-32.07
51,1572407627,0.5249,-0.7466,1.2261,32.32,-39.09,-42.74
52,1572412629,0.5522,-0.7056,1.1572,36.04,-48.11,-52.26
53,1572417628,0.5840,-0.6636,1.1025,38.23,-56.22,-60.61
54,1572422629,0.6016,-0.6045,1.0288,38.48,-63.17,-67.68
55,1572427627,0.6353,-0.5400,0.9600,36.95,-69.21,-73.84
56,1572432631,0.6748,-0.4736,0.8950,33.60,-74.09,-78.90
57,1572437627,0.6997,-0.4116,0.8315,29.21,-77.74,-83.05
58,1572442627,0.7402,-0.3516,0.7476,24.21,-80.30,-85.73
59,1572447628,0.7710,-0.2983,0.6855,18.72,-81.71,-87.50
60,1572452629,0.7998,-0.2378,0.6318,13.17,-82.26,-88.11
61,1572457629,0.8354,-0.1855,0.5796,7.87,-81.52,-87.62
62,1572462627,0.8682,-0.1240,0.5215,3.54,-79.76,-86.10
63,1572468109,0.8965,-0.0649,0.4658,0.55,-77.13,-83.41
64,1572472630,0.9272,-0.0181,0.4053,-0.43,-73.41,-79.88
65,1572477628,0.9556,0.0200,0.3672,0.67,-68.90,-75.12
66,1572482629,0.9858,0.0542,0.3218,3.72,-63.66,-69.09
67,1572487696,1.0176,0.0757,0.2915,8.48,-57.56,-62.07
68,1572492627,1.0664,0.0859,0.2686,14.27,-50.67,-54.09
69,1572497630,1.1016,0.0923,0.2539,20.37,-43.23,-45.24
70,1572502627,1.1128,0.0874,0.2490,25.79,-35.49,-35.85
71,1572508210,1.1089,0.0815,0.2271,30.24,-25.98,-24.27
72,1572512629,1.0742,0.1113,0.2051,30.91,-19.70,-16.77
73,1572517629,1.0142,0.1313,0.1919,28.78,-12.32,-7.87
74,1572522628,0.9814,0.1255,0.2061,23.05,-5.30,0.06
75,1572527629,0.9722,0.1069,0.2271,14.94,1.46,7.50
76,1572532630,0.9600,0.1030,0.2319,4.88,7.74,14.39
77,1572537629,0.9194,0.0913,0.2563,-5.79,13.48,20.55
78,1572542628,0.8872,0.0708,0.2729,-16.10,18.41,26.16
79,1572547630,0.8657,0.0601,0.2969,-25.18,22.74,31.10
80,1572552629,0.8486,0.0386,0.3296,-32.56,26.40,35.49
81,1572557629,0.8394,0.0034,0.3687,-37.80,29.82,39.63
82,1572562628,0.8423,-0.0293,0.4038,-40.61,32.74,43.29
83,1572567629,0.8506,-0.0713,0.4482,-41.04,35.00,46.52
84,1572572629,0.8433,-0.1172,0.4976,-39.82,36.71,49.39
85,1572577629,0.8296,-0.1523,0.5376,-37.44,37.80,51.52
86,1572582628,0.7886,-0.1821,0.5693,-34.70,37.99,52.68
87,1572587629,0.7446,-0.2100,0.6104,-31.89,37.38,52.80
88,1572592629,0.7012,-0.2437,0.6562,-28.90,36.04,52.01
89,1572597629,0.6724,-0.2773,0.7002,-25.85,34.09,50.24
90,1572602664,0.6558,-0.3105,0.7354,-22.01,31.59,47.80
91,1572607629,0.6475,-0.3501,0.7686,-17.80,28.60,44.88
92,1572612629,0.6553,-0.3843,0.8081,-12.68,25.18,41.46
93,1572617629,0.6577,-0.4077,0.8301,-7.26,21.52,37.80
94,1572622628,0.6675,-0.4307,0.8477,-1.52,17.68,33.96
95,1572627629,0.6802,-0.4448,0.8711,3.90,13.66,29.70
96,1572632629,0.6880,-0.4521,0.8784,8.60,9.57,25.37
97,1572637629,0.6943,-0.4604,0.8887,12.20,5.24,20.85
98,1572642630,0.6875,-0.4590,0.8955,14.51,1.10,16.40
99,1572647917,0.7012,-0.4609,0.8887,15.85,-3.05,11.83
100,1572652629,0.7124,-0.4624,0.8774,15.91,-7.26,7.38
101,1572657628,0.7295,-0.4551,0.8735,14.88,-11.28,2.99
102,1572662629,0.7432,-0.4458,0.8594,12.80,-14.88,-1.16
103,1572667627,0.7593,-0.4331,0.8457,9.94,-18.35,-5.00
104,1572672631,0.7573,-0.4233,0.8237,6.89,-21.59,-8.54
105,1572677628,0.7681,-0.4106,0.8018,3.84,-24.51,-11.77
106,1572682629,0.7783,-0.3940,0.7783,1.59,-27.01,-14.57
107,1572687627,0.7910,-0.3750,0.7661,0.12,-29.15,-16.95
108,1572692629,0.8027,-0.3555,0.7393,-0.49,-30.98,-18.90
109,1572697628,0.8184,-0.3335,0.7109,0.18,-32.38,-20.30
110,1572702630,0.8394,-0.3184,0.6831,1.95,-33.41,-21.28
111,1572707627,0.8628,-0.2993,0.6646,4.57,-33.84,-21.46
112,1572712629,0.8774,-0.2773,0.6401,7.80,-34.02,-21.28
113,1572717628,0.8994,-0.2598,0.6172,11.40,-33.84,-20.67
114,1572722629,0.9082,-0.2397,0.5884,14.70,-33.29,-19.70
115,1572727629,0.9072,-0.2158,0.5630,17.50,-32.32,-18.35
116,1572732628,0.9131,-0.1973,0.5449,19.45,-31.10,-16.77
117,1572737630,0.9175,-0.1831,0.5254,20.43,-29.63,-14.94
118,1572742629,0.9185,-0.1714,0.5010,20.49,-27.74,-12.93
119,1572747629,0.9146,-0.1533,0.4868,19.70,-25.73,-10.67
120,1572752628,0.9062,-0.1343,0.4678,18.29,-23.60,-8.48
121,1572757629,0.8970,-0.1157,0.4448,16.28,-21.10,-6.10
122,1572762629,0.8901,-0.1089,0.4355,14.15,-18.60,-3.41
123,1572768093,0.8872,-0.1025,0.4243,11.71,-16.04,-0.73
124,1572772764,0.8877,-0.1064,0.4116,9.39,-13.23,2.13
125,1572777728,0.8931,-0.1191,0.4077,7.26,-10.49,5.18
126,1572782629,0.8828,-0.1143,0.4126,4.76,-7.56,8.23
127,1572787628,0.8716,-0.1113,0.4087,2.07,-4.94,11.04
128,1572792629,0.8638,-0.1255,0.4141,-0.85,-2.32,13.72
129,1572797629,0.8604,-0.1328,0.4248,-3.96,0.12,16.10
130,1572802629,0.8398,-0.1387,0.4365,-6.95,2.32,18.23
131,1572807722,0.8247,-0.1616,0.4429,-9.88,4.15,20.06
132,1572812629,0.8223,-0.1763,0.4590,-12.38,5.98,21.71
133,1572817627,0.8154,-0.1895,0.4800,-14.51,7.26,22.99
134,1572822629,0.8062,-0.1982,0.4927,-16.10,8.60,24.09
135,1572827628,0.8076,-0.2090,0.5112,-16.83,9.70,24.88
136,1572832631,0.8022,-0.2217,0.5186,-16.77,10.49,25.55
137,1572838131,0.7920,-0.2319,0.5356,-15.37,11.16,25.91
138,1572842629,0.7871,-0.2480,0.5513,-13.23,11.59,26.22
139,1572847629,0.8032,-0.2695,0.5693,-10.18,12.07,26.40
140,1572852627,0.8037,-0.2827,0.5796,-6.77,12.20,26.52
141,1572857628,0.7959,-0.2944,0.5859,-3.54,12.07,26.46
142,1572862631,0.7817,-0.3042,0.5981,-0.61,11.89,25.85
143,1572867627,0.7739,-0.3174,0.6094,1.22,11.46,25.30
144,1572872631,0.7798,-0.3291,0.6304,2.32,10.98,24.27
145,1572877628,0.7769,-0.3403,0.6333,2.50,10.06,22.80
146,1572882629,0.7627,-0.3472,0.6475,2.01,9.33,21.40
147,1572887627,0.7520,-0.3506,0.6553,0.91,8.05,19.45
148,1572892629,0.7549,-0.3604,0.6611,-0.43,7.01,17.50
149,1572897628,0.7588,-0.3711,0.6675,-1.83,5.79,15.30
150,1572902629,0.7656,-0.3789,0.6743,-2.99,4.57,13.35
151,1572907628,0.7729,-0.3750,0.6768,-3.66,3.41,11.28
152,1572912629,0.7852,-0.3716,0.6782,-3.54,2.38,9.33
153,1572917628,0.7979,-0.3735,0.6758,-2.80,1.22,7.50
154,1572922631,0.8120,-0.3662,0.6763,-1.22,0.55,6.04
155,1572927680,0.8232,-0.3628,0.6772,1.34,-0.43,4.70
156,1572932629,0.8374,-0.3662,0.6772,4.39,-1.04,3.41
157,1572937628,0.8555,-0.3618,0.6719,7.80,-1.46,2.56
158,1572942631,0.8682,-0.3599,0.6592,11.46,-1.89,2.07
159,1572947627,0.8755,-0.3589,0.6587,14.76,-2.07,1.59
160,1572952629,0.8726,-0.3501,0.6519,17.20,-2.13,1.22
161,1572957628,0.8750,-0.3433,0.6416,18.78,-2.56,0.85
162,1572962629,0.8726,-0.3350,0.6367,19.33,-2.56,0.49
163,1572967627,0.8779,-0.3335,0.6318,18.96,-2.44,0.18
164,1572972631,0.8755,-0.3379,0.6309,17.62,-2.62,-0.06
165,1572977788,0.8682,-0.3296,0.6143,15.85,-2.44,-0.30
166,1572982631,0.8584,-0.3267,0.6089,13.60,-2.44,-0.55
167,1572987628,0.8589,-0.3174,0.6050,10.91,-2.68,-0.85
168,1572992631,0.8521,-0.3105,0.6025,8.05,-2.87,-1.10
169,1572997627,0.8511,-0.2969,0.5879,5.43,-2.80,-1.28
170,1573002629,0.8467,-0.2939,0.5732,3.23,-2.93,-1.28
171,1573007628,0.8486,-0.2925,0.5811,1.71,-2.87,-1.22
172,1573012629,0.8506,-0.2974,0.5786,0.73,-2.80,-1.04
173,1573017627,0.8413,-0.2925,0.5791,0.55,-2.50,-0.61
174,1573022629,0.8408,-0.2832,0.5781,0.91,-2.20,-0.30
175,1573027629,0.8462,-0.2871,0.5737,1.71,-2.01,0.18
176,1573032631,0.8438,-0.2861,0.5659,2.74,-1.95,0.61
177,1573037629,0.8452,-0.2852,0.5693,3.90,-1.59,1.16
178,1573042630,0.8384,-0.2837,0.5747,5.12,-1.34,1.59
179,1573047629,0.8438,-0.2783,0.5664,5.73,-1.10,2.01
180,1573052630,0.8418,-0.2778,0.5688,6.04,-1.10,2.44
181,1573057838,0.8364,-0.2832,0.5669,6.10,-0.73,2.74
182,1573062629,0.8330,-0.2788,0.5679,5.79,-0.43,3.17
183,1573067628,0.8286,-0.2793,0.5776,5.49,0.00,3.54
184,1573072629,0.8359,-0.2871,0.5825,5.55,0.49,3.90
185,1573077629,0.8413,-0.2896,0.5771,6.04,0.98,4.39
186,1573082629,0.8394,-0.2896,0.5693,6.77,1.22,4.88
187,1573087628,0.8320,-0.2930,0.5771,7.26,1.52,5.18
188,1573092629,0.8257,-0.2910,0.5820,7.13,1.59,5.37
189,1573097627,0.8218,-0.2876,0.5864,6.59,1.83,5.43
190,1573102629,0.8164,-0.2910,0.5874,5.43,1.77,5.43
191,1573107628,0.8101,-0.2900,0.5830,4.33,1.77,5.30
192,1573112630,0.8086,-0.2905,0.5811,3.11,1.59,5.12
193,1573117628,0.8110,-0.2935,0.5874,2.01,1.65,5.00
194,1573122630,0.8184,-0.3032,0.5898,1.04,1.52,4.94
195,1573127629,0.8232,-0.3018,0.6016,0.24,1.59,4.88
196,1573132629,0.8252,-0.3013,0.5938,-0.73,1.52,4.82
197,1573137628,0.8179,-0.3047,0.6016,-1.65,1.28,4.63
198,1573142629,0.8218,-0.3032,0.6050,-2.44,1.22,4.51
199,1573147629,0.8306,-0.3047,0.6084,-2.93,1.16,4.39
200,1573152629,0.8330,-0.3130,0.6104,-2.99,0.85,4.21
201,1573157628,0.8398,-0.3154,0.6128,-2.80,0.79,4.09
202,1573162629,0.8350,-0.3145,0.6089,-2.44,0.43,3.90
203,1573167629,0.8350,-0.3145,0.6147,-2.01,0.24,3.78
204,1573172629,0.8379,-0.3066,0.6108,-1.65,-0.12,3.78
205,1573177629,0.8384,-0.3071,0.6113,-1.34,-0.30,3.48
206,1573182629,0.8413,-0.3047,0.6030,-1.16,-0.49,3.41
207,1573187629,0.8452,-0.3052,0.6030,-0.79,-0.43,3.48
208,1573192628,0.8477,-0.3062,0.6060,-0.30,-0.67,3.48
209,1573197631,0.8457,-0.3013,0.6011,0.18,-0.67,3.66
210,1573202629,0.8423,-0.2979,0.5991,0.67,-0.79,3.84
211,1573207629,0.8433,-0.2925,0.5981,1.04,-0.67,4.02
212,1573212629,0.8447,-0.2944,0.6006,1.16,-0.73,4.15
213,1573217628,0.8369,-0.2900,0.5942,1.28,-0.67,4.27
214,1573222629,0.8354,-0.2915,0.5933,0.98,-0.61,4.45
215,1573227629,0.8379,-0.2915,0.5908,0.55,-0.61,4.57
216,1573232629,0.8296,-0.2891,0.5981,-0.18,-0.73,4.63
217,1573237628,0.8237,-0.2896,0.5977,-1.10,-0.85,4.51
218,1573242629,0.8223,-0.2876,0.6030,-2.32,-0.85,4.39
219,1573247914,0.8257,-0.2876,0.5972,-3.41,-0.73,4.27
220,1573252629,0.8340,-0.2915,0.6030,-4.33,-0.91,4.27
221,1573257632,0.8330,-0.2969,0.6040,-4.88,-0.98,4.27
222,1573262630,0.8369,-0.2974,0.6162,-5.24,-0.98,4.33
223,1573267629,0.8379,-0.3018,0.6177,-5.43,-0.98,4.15
224,1573272629,0.8447,-0.2993,0.6172,-5.67,-0.85,4.15
225,1573277628,0.8428,-0.2993,0.6201,-5.67,-0.98,3.96
226,1573282629,0.8359,-0.3091,0.6367,-5.49,-0.79,3.72
227,1573287630,0.8394,-0.3101,0.6304,-4.82,-0.85,3.48
228,1573292629,0.8413,-0.3130,0.6240,-3.72,-0.85,3.17
229,1573297628,0.8364,-0.3071,0.6304,-2.32,-0.85,2.99
230,1573302629,0.8384,-0.3101,0.6323,-0.85,-0.91,2.68
231,1573307629,0.8447,-0.3066,0.6343,0.61,-1.04,2.26
232,1573312629,0.8442,-0.3062,0.6304,2.07,-1.04,1.83
233,1573317628,0.8379,-0.3052,0.6279,3.23,-1.10,1.46
234,1573322629,0.8413,-0.3027,0.6279,4.21,-1.04,1.16
235,1573327629,0.8418,-0.2979,0.6274,4.76,-1.10,0.79
236,1573332629,0.8481,-0.2979,0.6245,5.18,-1.04,0.55
237,1573337628,0.8525,-0.2925,0.6304,5.37,-1.04,0.37
238,1573342629,0.8555,-0.2886,0.6274,5.06,-0.91,0.12
239,1573347627,0.8530,-0.2817,0.6274,4.51,-0.98,-0.24
240,1573352631,0.8462,-0.2842,0.6270,3.60,-0.91,-0.61
241,1573357629,0.8501,-0.2842,0.6304,2.50,-0.85,-0.98
242,1573362628,0.8555,-0.2871,0.6309,1.16,-0.91,-1.34
243,1573367629,0.8550,-0.2930,0.6338,-0.67,-1.04,-1.77
244,1573372627,0.8525,-0.2935,0.6387,-2.93,-1.16,-2.26
245,1573377627,0.8486,-0.2910,0.6387,-5.98,-1.34,-2.80
246,1573382631,0.8555,-0.2925,0.6353,-9.88,-1.77,-3.54
247,1573387863,0.8540,-0.2974,0.6426,-14.63,-2.01,-4.33
248,1573392629,0.8550,-0.2925,0.6362,-20.55,-2.38,-5.00
249,1573397630,0.8657,-0.2837,0.6260,-27.38,-2.93,-5.73
250,1573402629,0.8682,-0.2778,0.6274,-35.24,-3.41,-6.83
251,1573407628,0.8574,-0.2754,0.6372,-44.15,-3.78,-7.80
252,1573412629,0.8364,-0.2793,0.6655,-53.66,-4.21,-8.66
253,1573417629,0.8179,-0.2808,0.6890,-63.41,-4.33,-9.57
254,1573422629,0.8076,-0.2783,0.7129,-72.38,-4.27,-10.30
255,1573427628,0.7979,-0.2690,0.7085,-79.70,-4.21,-10.85
256,1573432629,0.7905,-0.2598,0.7021,-84.33,-4.21,-11.52
257,1573437629,0.7998,-0.2622,0.7012,-85.61,-4.57,-11.83
258,1573442629,0.8140,-0.2725,0.6934,-83.41,-5.00,-11.95
259,1573447629,0.8169,-0.2798,0.6724,-78.17,-5.49,-11.77
260,1573452629,0.8257,-0.2905,0.6699,-70.37,-6.10,-11.22
261,1573457629,0.8247,-0.2998,0.6582,-60.79,-6.83,-10.49
262,1573462630,0.8281,-0.3110,0.6499,-50.49,-7.56,-9.70
263,1573467895,0.8364,-0.3218,0.6367,-40.49,-8.54,-8.60
264,1573472629,0.8330,-0.3276,0.6309,-31.83,-9.51,-7.50
265,1573477629,0.8257,-0.3149,0.6357,-24.94,-10.37,-6.52
266,1573482629,0.8228,-0.2935,0.6387,-20.30,-11.10,-5.61
267,1573487628,0.8169,-0.2783,0.6348,-17.87,-11.89,-5.12
268,1573492630,0.8213,-0.2588,0.6265,-17.68,-12.68,-4.70
269,1573497629,0.8262,-0.2476,0.6318,-19.21,-13.29,-4.57
270,1573502629,0.8320,-0.2417,0.6250,-22.20,-13.78,-4.27
271,1573507628,0.8359,-0.2344,0.6030,-25.98,-14.27,-4.02
272,1573512629,0.8369,-0.2349,0.5889,-30.43,-15.06,-3.72
273,1573517627,0.8325,-0.2363,0.5864,-35.37,-15.37,-3.54
274,1573522629,0.8198,-0.2495,0.5806,-40.18,-15.73,-3.05
275,1573527629,0.8125,-0.2568,0.5767,-45.06,-16.16,-2.38
276,1573532629,0.8057,-0.2505,0.5596,-49.70,-16.52,-1.65
277,1573537628,0.7993,-0.2568,0.5503,-53.90,-16.83,-0.79
278,1573542629,0.7983,-0.2617,0.5342,-57.62,-17.44,0.12
279,1573547629,0.7910,-0.2705,0.5132,-60.43,-17.93,1.28
280,1573552629,0.7949,-0.2798,0.5073,-62.44,-18.48,2.56
281,1573557628,0.7935,-0.2778,0.4917,-63.84,-18.96,3.90
282,1573562629,0.7949,-0.2783,0.4692,-64.45,-19.57,5.24
283,1573567629,0.8022,-0.2778,0.4619,-64.63,-20.06,6.83
284,1573572629,0.7979,-0.2705,0.4487,-64.45,-20.61,8.23
285,1573577628,0.8047,-0.2729,0.4526,-64.02,-21.04,9.63
286,1573582629,0.8032,-0.2710,0.4502,-63.48,-21.28,11.04
287,1573587629,0.8110,-0.2676,0.4478,-62.80,-21.46,12.50
288,1573592629,0.8164,-0.2627,0.4434,-61.95,-21.46,13.90
289,1573597750,0.8223,-0.2603,0.4385,-60.85,-21.40,15.00
290,1573602630,0.8247,-0.2598,0.4209,-59.57,-21.16,16.16
291,1573607629,0.8267,-0.2607,0.4160,-58.60,-20.79,17.13
292,1573612629,0.8164,-0.2715,0.4160,-57.62,-20.43,18.05
293,1573617628,0.8120,-0.2861,0.4292,-56.95,-19.94,19.02
294,1573622629,0.8018,-0.2993,0.4478,-56.46,-19.21,20.00
295,1573627629,0.7969,-0.3076,0.4512,-56.16,-18.35,21.22
296,1573632629,0.7886,-0.3149,0.4600,-55.67,-17.38,22.38
297,1573637628,0.7930,-0.3237,0.4717,-54.76,-16.34,23.66
298,1573642629,0.7837,-0.3247,0.4663,-53.23,-15.24,24.94
299,1573647629,0.7871,-0.3213,0.4473,-50.67,-14.33,26.22
300,1573652629,0.8013,-0.3208,0.4346,-47.01,-13.60,27.50
301,1573657628,0.8208,-0.3271,0.4287,-42.62,-12.80,28.78
302,1573662629,0.8267,-0.3296,0.4224,-37.32,-12.20,30.12
303,1573667801,0.8242,-0.3408,0.4331,-31.46,-11.46,31.40
304,1573672629,0.8208,-0.3394,0.4365,-25.06,-10.73,32.74
305,1573677629,0.8232,-0.3491,0.4336,-18.29,-9.76,33.90
306,1573682629,0.8281,-0.3530,0.4346,-11.40,-8.66,34.88
307,1573687629,0.8354,-0.3594,0.4429,-4.39,-7.68,36.10
308,1573692628,0.8374,-0.3721,0.4385,2.74,-6.52,37.01
309,1573697629,0.8379,-0.3848,0.4390,9.39,-5.49,38.05
310,1573702628,0.8335,-0.4009,0.4434,15.85,-4.45,39.02
311,1573707629,0.8262,-0.4160,0.4341,21.83,-3.54,39.76
312,1573712629,0.8228,-0.4233,0.4287,27.13,-2.44,40.61
313,1573717629,0.8379,-0.4233,0.4492,31.77,-1.34,41.22
314,1573722629,0.8315,-0.4360,0.4658,35.79,0.00,41.71
315,1573727629,0.8301,-0.4458,0.4663,39.45,1.28,42.07
316,1573732627,0.8340,-0.4434,0.4629,42.44,2.74,42.26
317,1573737629,0.8281,-0.4438,0.4551,45.24,4.09,42.13
318,1573742628,0.8203,-0.4355,0.4482,47.68,5.30,41.71
319,1573747629,0.8208,-0.4424,0.4404,49.82,6.40,41.10
320,1573752629,0.8110,-0.4478,0.4507,51.40,7.56,40.43
321,1573757629,0.8110,-0.4639,0.4502,52.62,8.41,39.63
322,1573762627,0.8086,-0.4868,0.4629,53.17,9.63,38.84
323,1573767627,0.8086,-0.5078,0.4717,53.23,10.85,38.11
324,1573772627,0.8130,-0.5151,0.4707,53.17,11.89,37.32
325,1573777629,0.8135,-0.5215,0.4624,52.87,12.68,36.46
326,1573782629,0.8174,-0.5146,0.4590,52.38,13.48,35.49
327,1573787627,0.8203,-0.5200,0.4414,51.77,14.15,34.39
328,1573792627,0.8164,-0.5249,0.4316,50.98,14.27,33.29
329,1573797935,0.8101,-0.5254,0.4302,49.76,14.39,32.07
330,1573802629,0.8032,-0.5244,0.4380,47.80,14.45,30.79
331,1573807629,0.7979,-0.5195,0.4438,45.30,14.45,29.45
332,1573812629,0.7964,-0.5142,0.4531,42.32,14.45,27.99
333,1573817628,0.7871,-0.5068,0.4692,38.78,14.27,26.52
334,1573822629,0.7715,-0.5122,0.4814,35.06,14.39,24.88
335,1573827630,0.7661,-0.5044,0.4839,31.83,14.51,23.35
336,1573832629,0.7749,-0.5103,0.4707,29.09,14.27,21.95
337,1573837628,0.7910,-0.5322,0.4512,27.13,13.90,20.67
338,1573842629,0.8086,-0.5537,0.4414,25.73,13.17,19.51
339,1573847629,0.8105,-0.5781,0.4458,24.51,12.44,18.60
340,1573852627,0.8115,-0.5972,0.4600,22.93,11.71,18.05
341,1573857629,0.8188,-0.5947,0.4702,20.79,10.79,17.38
342,1573862629,0.8125,-0.5923,0.4722,18.05,10.06,16.40
343,1573867629,0.8135,-0.5815,0.4766,14.70,9.21,15.37
344,1573872629,0.8174,-0.5854,0.4927,10.37,8.35,14.15
345,1573877629,0.7832,-0.5767,0.4932,5.55,7.62,12.87
346,1573882628,0.7915,-0.5894,0.4863,0.24,6.71,11.34
347,1573887631,0.7886,-0.5850,0.4990,-5.91,5.67,10.00
348,1573892627,0.7661,-0.5801,0.5029,-12.74,4.51,8.48
349,1573897629,0.7471,-0.5596,0.5146,-20.18,3.35,7.01
350,1573902628,0.7407,-0.5327,0.5078,-27.44,2.26,5.12
351,1573907631,0.7207,-0.5264,0.5430,-34.57,1.16,3.54
352,1573912627,0.7046,-0.5122,0.5244,-40.18,0.67,2.20
353,1573917629,0.7798,-0.4814,0.4434,-45.73,-0.61,0.55
354,1573922628,0.7529,-0.5039,0.5273,-50.79,-1.95,-0.91
355,1573927629,0.7676,-0.5322,0.4971,-54.57,-2.87,-1.83
356,1573932628,0.7178,-0.5811,0.5591,-57.01,-3.72,-2.07
357,1573937629,0.7632,-0.5029,0.4888,-57.50,-4.33,-2.20
358,1573942628,0.8047,-0.4951,0.4707,-57.38,-5.12,-2.74
359,1573947629,0.7163,-0.6138,0.5132,-56.52,-5.79,-2.80
360,1573952629,0.7993,-0.5464,0.4541,-54.63,-6.40,-2.32
361,1573957629,0.7847,-0.5063,0.4297,-53.23,-7.13,-2.32
362,1573962628,0.7427,-0.5015,0.4399,-51.95,-7.87,-2.38
363,1573967627,0.6812,-0.4946,0.4775,-49.15,-7.80,-2.20
364,1573972627,0.7461,-0.4692,0.4917,-44.94,-7.50,-1.71
365,1573977627,0.8232,-0.4473,0.3965,-39.76,-7.32,-1.22
366,1573982627,0.8325,-0.4727,0.3779,-35.12,-7.68,-0.85
367,1573987632,0.8623,-0.4580,0.3545,-31.22,-7.93,-0.30
368,1573992629,0.8101,-0.4590,0.3643,-27.99,-7.56,-0.06
369,1573997629,0.7354,-0.5073,0.4038,-25.55,-7.13,0.37
370,1574002916,0.7974,-0.6284,0.3735,-23.66,-6.28,0.61
371,1574007629,0.8423,-0.6475,0.3281,-23.60,-5.61,0.67
372,1574012627,0.9292,-0.6025,0.2554,-25.98,-4.39,-0.61
373,1574017643,0.8643,-0.5562,0.2612,-31.04,-3.54,-2.38
374,1574022629,0.8413,-0.5747,0.4219,-31.16,-2.07,-3.29
375,1574027628,0.8662,-0.6216,0.4570,-28.17,-0.18,-3.48
376,1574032627,0.9077,-0.6670,0.4805,-24.70,2.07,-3.72
377,1574037627,0.9268,-0.6890,0.5361,-22.20,5.18,-4.02
378,1574042627,0.9380,-0.6489,0.5830,-19.57,9.51,-4.27
379,1574048113,0.9336,-0.6240,0.5396,-15.18,13.84,-4.45
380,1574052630,0.9292,-0.6172,0.4263,-8.90,17.74,-4.09
381,1574057627,0.9204,-0.6157,0.3564,-0.37,20.79,-3.23
382,1574062627,0.9189,-0.6572,0.3389,10.06,23.41,-1.77
383,1574067627,0.8970,-0.7334,0.3389,22.07,25.67,0.61
384,1574072627,0.8833,-0.7549,0.3379,34.88,28.05,4.02
385,1574077627,0.8994,-0.7173,0.3394,48.23,30.43,7.93
386,1574082627,0.9048,-0.6421,0.2949,62.20,32.44,11.65
387,1574087627,0.8940,-0.5762,0.2544,76.52,34.02,14.82
388,1574092627,0.8770,-0.5435,0.2349,90.73,34.88,17.56
389,1574097627,0.8394,-0.5210,0.3032,105.55,35.24,20.12
390,1574102627,0.7979,-0.4868,0.3867,122.38,35.91,22.62
391,1574108425,0.7900,-0.4443,0.3584,139.27,35.85,24.94
392,1574112631,0.8091,-0.4160,0.3428,155.06,35.43,26.59
393,1574117629,0.8262,-0.4150,0.3960,168.60,34.70,27.56
394,1574122631,0.8232,-0.4468,0.4536,178.78,34.21,28.17
395,1574127627,0.8081,-0.4678,0.4585,184.33,33.66,28.54
396,1574132627,0.7935,-0.4590,0.4629,184.82,32.74,28.48
397,1574137679,0.7920,-0.4424,0.5088,180.43,31.83,27.74
398,1574142628,0.7939,-0.4468,0.5342,171.46,30.61,26.46
399,1574147627,0.7974,-0.4688,0.5356,157.74,29.09,24.82
400,1574152631,0.7920,-0.4878,0.5591,139.63,27.62,22.99
401,1574157629,0.7920,-0.5205,0.6069,118.23,25.98,20.91
402,1574162629,0.7896,-0.5449,0.6260,94.02,24.27,18.54
403,1574167628,0.7754,-0.5601,0.6299,68.23,22.13,16.04
404,1574172629,0.7705,-0.5781,0.6558,42.38,19.94,13.41
405,1574177628,0.7798,-0.6001,0.6797,17.50,17.68,10.91
406,1574182629,0.7798,-0.6201,0.6816,-5.00,14.88,8.35
407,1574187628,0.7798,-0.6431,0.6733,-24.70,11.77,5.91
408,1574192629,0.7734,-0.6611,0.7041,-41.10,8.66,3.78
409,1574197631,0.7622,-0.6611,0.7290,-54.45,5.49,1.59
410,1574202627,0.7427,-0.6494,0.7339,-64.27,2.32,-0.49
411,1574207744,0.7378,-0.6401,0.7354,-70.49,-0.98,-2.32
412,1574212629,0.7466,-0.6318,0.7544,-72.74,-4.15,-4.27
413,1574217628,0.7466,-0.6191,0.7607,-70.98,-7.13,-5.91
414,1574222629,0.7544,-0.6084,0.7534,-65.37,-10.00,-7.38
415,1574227628,0.7651,-0.5986,0.7578,-56.52,-13.05,-8.60
416,1574232629,0.7681,-0.5967,0.7651,-45.30,-15.61,-9.70
417,1574237628,0.7725,-0.5894,0.7681,-32.50,-18.23,-10.61
418,1574242629,0.7778,-0.5771,0.7578,-19.45,-20.55,-11.22
419,1574247628,0.7803,-0.5649,0.7646,-7.01,-22.93,-12.01
420,1574252629,0.7690,-0.5420,0.7715,3.66,-24.70,-12.80
421,1574257628,0.7695,-0.5142,0.7783,12.13,-26.65,-13.84
422,1574262629,0.7681,-0.4912,0.7744,18.17,-28.17,-15.12
423,1574267628,0.7666,-0.4697,0.7871,21.83,-29.45,-16.59
424,1574272629,0.7446,-0.4551,0.7988,23.72,-30.67,-18.23
425,1574277629,0.7241,-0.4336,0.7949,24.39,-31.71,-20.06
426,1574282629,0.7100,-0.4141,0.7925,24.82,-32.99,-22.13
427,1574287628,0.7031,-0.4067,0.7827,25.24,-34.02,-24.09
428,1574292629,0.6787,-0.4043,0.7769,25.98,-35.37,-25.91
429,1574297628,0.6494,-0.4004,0.7603,27.07,-36.65,-27.62
430,1574302629,0.6274,-0.3862,0.7383,28.29,-37.93,-29.02
431,1574307628,0.6245,-0.3726,0.7271,28.90,-38.96,-30.12
432,1574312629,0.6343,-0.3511,0.7095,28.48,-39.82,-31.10
433,1574317628,0.6602,-0.3223,0.6948,26.65,-40.49,-32.01
434,1574322629,0.6777,-0.2944,0.6802,23.48,-40.79,-32.68
435,1574327628,0.6938,-0.2729,0.6675,19.09,-40.91,-33.23
436,1574332629,0.7007,-0.2554,0.6504,14.21,-40.55,-33.66
437,1574337628,0.7041,-0.2441,0.6309,9.27,-39.88,-33.72
438,1574342630,0.7153,-0.2349,0.6201,4.63,-39.21,-33.54
439,1574347628,0.7139,-0.2261,0.6113,0.43,-38.05,-32.93
440,1574352629,0.7251,-0.2144,0.5942,-2.87,-36.77,-31.89
441,1574357628,0.7451,-0.2070,0.5806,-4.94,-35.18,-30.61
442,1574362629,0.7593,-0.1997,0.5757,-5.73,-33.72,-28.96
443,1574367628,0.7656,-0.1904,0.5674,-4.94,-31.83,-26.89
444,1574372629,0.7788,-0.1890,0.5513,-2.68,-30.06,-24.51
445,1574377628,0.7930,-0.1909,0.5430,0.91,-28.11,-21.77
446,1574382629,0.7983,-0.1909,0.5229,5.73,-26.34,-18.84
447,1574387628,0.7954,-0.1943,0.5098,11.34,-24.76,-15.91
448,1574392629,0.7856,-0.1992,0.4937,17.20,-23.11,-12.74
449,1574397628,0.7769,-0.1992,0.4883,22.68,-21.52,-9.70
450,1574402629,0.7832,-0.2046,0.4766,27.20,-19.94,-6.46
451,1574407628,0.7827,-0.2036,0.4604,29.94,-18.29,-3.41
452,1574412629,0.7822,-0.2007,0.4551,30.24,-16.59,-0.49
453,1574417628,0.7778,-0.1919,0.4585,28.17,-14.63,2.07
454,1574422629,0.7832,-0.1802,0.4668,24.02,-12.44,4.45
455,1574427628,0.7974,-0.1729,0.4648,18.60,-10.24,6.59
456,1574432629,0.8066,-0.1816,0.4639,12.80,-7.87,8.84
457,1574437628,0.8130,-0.1865,0.4565,7.50,-5.49,11.10
458,1574442630,0.8286,-0.1909,0.4565,3.23,-3.05,13.48
459,1574447628,0.8530,-0.2148,0.4570,0.12,-0.91,16.16
460,1574452629,0.8677,-0.2407,0.4683,-1.89,1.22,18.78
461,1574457628,0.8735,-0.2603,0.4844,-3.17,3.29,21.59
462,1574462629,0.8730,-0.2759,0.4883,-3.84,4.88,24.02
463,1574467628,0.8696,-0.2974,0.5078,-4.15,6.22,26.16
464,1574472629,0.8672,-0.3154,0.5288,-4.27,7.26,27.87
465,1574477629,0.8599,-0.3408,0.5381,-4.27,7.93,29.15
466,1574482629,0.8594,-0.3618,0.5493,-3.78,8.35,29.94
467,1574487629,0.8701,-0.3950,0.5679,-2.50,8.60,30.49
468,1574492629,0.8911,-0.4224,0.5879,-0.30,8.54,30.67
469,1574497628,0.9175,-0.4575,0.6123,2.68,8.48,30.55
470,1574502629,0.9312,-0.4917,0.6299,6.16,8.11,30.12
471,1574507628,0.9502,-0.5254,0.6460,9.82,7.44,29.21
472,1574512629,0.9497,-0.5645,0.6694,12.99,6.34,27.62
473,1574517628,0.9233,-0.5918,0.6929,15.55,5.06,25.55
474,1574522629,0.8901,-0.6157,0.7222,17.07,3.23,22.44
475,1574527628,0.8867,-0.6426,0.7471,17.93,1.10,18.66
476,1574532629,0.8872,-0.6714,0.7651,18.11,-1.40,14.27
477,1574537628,0.8774,-0.6914,0.7852,17.80,-4.27,9.21
478,1574542629,0.8613,-0.7202,0.8052,17.32,-7.56,3.66
479,1574547628,0.8472,-0.7393,0.8174,16.95,-11.10,-2.32
480,1574552629,0.8369,-0.7534,0.8218,16.71,-15.06,-8.72
481,1574557628,0.8330,-0.7598,0.8315,16.95,-19.15,-15.24
482,1574562629,0.8403,-0.7632,0.8315,17.50,-23.23,-22.01
483,1574567628,0.8530,-0.7612,0.8335,18.41,-27.44,-28.72
484,1574572629,0.8726,-0.7554,0.8267,19.82,-31.52,-35.67
485,1574577628,0.8813,-0.7427,0.8291,21.65,-35.67,-42.32
486,1574582629,0.8799,-0.7368,0.8301,24.27,-39.51,-48.90
487,1574587628,0.8833,-0.7314,0.8232,27.74,-43.41,-55.37
488,1574592627,0.8911,-0.7197,0.8188,32.20,-46.89,-61.46
489,1574597629,0.9033,-0.7065,0.8022,37.44,-50.49,-67.07
490,1574602629,0.9106,-0.6895,0.7861,43.35,-53.78,-72.32
491,1574607629,0.9214,-0.6743,0.7686,49.45,-57.01,-77.26
492,1574612629,0.9326,-0.6548,0.7598,55.24,-59.88,-81.77
493,1574617629,0.9390,-0.6318,0.7373,59.82,-62.74,-85.98
494,1574622629,0.9487,-0.5981,0.7188,62.87,-65.37,-89.88
495,1574627629,0.9619,-0.5708,0.6909,64.27,-67.74,-93.60
496,1574632629,0.9517,-0.5312,0.6577,63.54,-70.00,-96.89
497,1574637629,0.9292,-0.5005,0.6309,61.10,-72.13,-100.00
498,1574642629,0.9106,-0.4619,0.5991,57.20,-73.96,-102.74
499,1574647629,0.9141,-0.4253,0.5640,52.38,-75.49,-105.18
500,1574652629,0.9263,-0.3887,0.5288,46.83,-76.71,-107.20
501,1574657629,0.9326,-0.3521,0.5068,40.98,-77.50,-108.84
502,1574662629,0.9497,-0.3223,0.4771,34.94,-78.11,-109.94
503,1574667629,0.9414,-0.2847,0.4624,28.90,-78.23,-110.73
504,1574672627,0.9121,-0.2485,0.4497,23.35,-78.05,-111.22
505,1574677629,0.8970,-0.2085,0.4287,19.09,-77.20,-111.22
506,1574682630,0.8989,-0.1660,0.3989,16.28,-76.16,-110.91
507,1574687627,0.9058,-0.1333,0.3667,15.37,-74.94,-110.18
508,1574692629,0.9019,-0.0986,0.3462,15.85,-73.23,-108.84
509,1574697629,0.8843,-0.0679,0.3135,17.44,-71.40,-107.01
510,1574702629,0.8701,-0.0376,0.2959,19.51,-69.45,-104.63
511,1574707629,0.8569,-0.0015,0.2686,21.52,-67.01,-101.77
512,1574712926,0.8447,0.0322,0.2510,23.35,-64.51,-98.66
513,1574717629,0.8262,0.0571,0.2261,24.39,-61.65,-95.12
514,1574722629,0.7930,0.0894,0.1978,24.57,-58.66,-91.28
515,1574727629,0.7778,0.1284,0.1768,23.66,-55.49,-87.13
516,1574732629,0.7725,0.1689,0.1572,21.40,-52.20,-82.68
517,1574737629,0.7559,0.2051,0.1538,17.93,-48.60,-77.99
518,1574742629,0.7437,0.2354,0.1392,13.54,-44.76,-72.80
519,1574747629,0.7363,0.2598,0.1270,8.96,-40.55,-67.38
520,1574752629,0.7280,0.2710,0.1172,4.39,-36.52,-61.65
521,1574757629,0.7363,0.2803,0.1074,0.06,-32.01,-55.12
522,1574762629,0.7334,0.3042,0.0942,-3.78,-27.38,-48.23
523,1574767629,0.7314,0.3145,0.1045,-7.26,-22.74,-41.04
524,1574772629,0.7368,0.3018,0.1157,-10.18,-18.11,-33.48
525,1574777629,0.7510,0.2964,0.1079,-12.68,-13.35,-25.73
526,1574782627,0.7388,0.3052,0.0962,-14.63,-8.84,-17.74
527,1574787629,0.7109,0.3047,0.0991,-16.34,-4.70,-10.00
528,1574792629,0.7026,0.3013,0.0996,-18.23,-0.73,-2.38
529,1574797629,0.7007,0.2930,0.0967,-19.88,2.87,5.30
530,1574802629,0.7026,0.2798,0.1108,-21.46,6.34,12.87
531,1574807629,0.7104,0.2632,0.1216,-22.74,9.57,20.49
532,1574812629,0.7192,0.2471,0.1323,-23.41,12.56,27.87
533,1574817629,0.7212,0.2285,0.1357,-22.99,15.49,35.24
534,1574822629,0.7241,0.2041,0.1523,-21.65,18.05,42.44
535,1574827629,0.7466,0.1689,0.1626,-19.57,20.37,49.57
536,1574832629,0.7588,0.1343,0.1831,-17.07,22.44,56.52
537,1574837629,0.7729,0.0972,0.2002,-14.82,24.15,63.05
538,1574842629,0.7788,0.0625,0.2227,-13.48,25.67,69.15
539,1574847629,0.7847,0.0210,0.2417,-13.29,26.52,74.33
540,1574852629,0.8062,-0.0283,0.2734,-14.57,27.13,78.96
541,1574857629,0.8071,-0.0747,0.2920,-17.50,27.07,82.50
542,1574862629,0.8086,-0.1138,0.3184,-22.07,26.71,85.24
543,1574867629,0.8257,-0.1538,0.3525,-28.11,25.91,86.77
544,1574872767,0.8525,-0.2114,0.3994,-35.43,24.82,87.13
545,1574877629,0.8872,-0.2612,0.4312,-43.29,23.54,87.07
546,1574882629,0.9121,-0.3140,0.4600,-50.73,21.59,86.40
547,1574887630,0.9224,-0.3682,0.4961,-57.62,19.39,85.24
548,1574892629,0.9116,-0.4199,0.5386,-62.99,16.40,82.38
549,1574897629,0.9165,-0.4702,0.5713,-66.46,13.35,78.66
550,1574902629,0.9360,-0.5264,0.6011,-67.87,9.70,74.21
551,1574907629,0.9619,-0.5933,0.6338,-66.77,5.91,69.15
552,1574912629,0.9761,-0.6606,0.6689,-63.48,1.89,63.35
553,1574917629,0.9775,-0.7163,0.6934,-58.90,-2.50,56.95
554,1574922633,0.9653,-0.7573,0.7095,-54.57,-6.10,51.16
555,1574927629,0.9688,-0.7983,0.7358,-47.93,-11.71,41.46
556,1574932629,0.9736,-0.8296,0.7471,-43.96,-15.37,34.45
557,1574937629,0.9902,-0.8672,0.7544,-38.66,-20.91,23.05
558,1574942629,0.9995,-0.8828,0.7617,-35.24,-25.43,12.87
559,1574947628,1.0044,-0.8955,0.7607,-33.29,-29.27,4.39
560,1574952629,0.9985,-0.8955,0.7500,-31.77,-34.51,-8.84
561,1574957628,0.9971,-0.8916,0.7407,-31.22,-37.68,-17.93
562,1574962627,1.0093,-0.8755,0.7144,-30.91,-42.26,-31.40
563,1574967629,1.0176,-0.8457,0.6895,-30.67,-45.67,-42.50
564,1574972629,1.0229,-0.8169,0.6641,-30.06,-48.54,-53.23
565,1574977628,1.0195,-0.7886,0.6431,-29.21,-50.30,-61.46
566,1574982629,1.0005,-0.7285,0.6035,-27.26,-52.62,-73.05
567,1574987628,0.9897,-0.6904,0.5762,-25.00,-53.54,-80.49
568,1574992629,0.9980,-0.6104,0.5376,-20.18,-54.15,-90.43
569,1574997629,1.0073,-0.5645,0.5142,-16.16,-54.15,-96.40
570,1575002919,0.9907,-0.4863,0.4683,-9.27,-53.66,-104.27
571,1575007773,0.9800,-0.4136,0.4268,-3.23,-52.68,-109.63
572,1575012629,0.9707,-0.3394,0.3828,2.93,-51.28,-114.02
573,1575017629,0.9678,-0.2749,0.3477,7.38,-49.82,-116.89
574,1575022629,0.9604,-0.1997,0.2993,12.32,-47.68,-119.45
575,1575027629,0.9424,-0.1333,0.2598,15.67,-45.06,-120.98
576,1575032631,0.9238,-0.0269,0.2075,16.95,-41.83,-121.16
577,1575037628,0.9116,0.0474,0.1782,15.67,-39.39,-120.37
578,1575042629,0.8921,0.1387,0.1597,11.65,-36.10,-118.72
579,1575047628,0.8740,0.2236,0.1475,5.37,-32.50,-115.79
580,1575052629,0.8428,0.3101,0.1201,-2.50,-28.54,-111.95
581,1575057628,0.7974,0.3931,0.1001,-10.61,-24.51,-106.89
582,1575062629,0.7471,0.4712,0.0791,-17.87,-20.24,-100.49
583,1575067628,0.7163,0.5439,0.0601,-23.72,-15.85,-92.87
584,1575072629,0.7017,0.6191,0.0518,-27.93,-11.40,-83.66
585,1575077628,0.6714,0.6851,0.0381,-29.94,-6.65,-73.23
586,1575082629,0.6489,0.7524,0.0303,-29.76,-1.95,-61.46
587,1575087628,0.6406,0.8213,0.0244,-27.26,3.29,-48.48
588,1575092629,0.6230,0.8730,0.0190,-22.56,8.48,-34.39
589,1575097628,0.6104,0.9116,0.0137,-16.34,13.54,-19.27
590,1575102629,0.5830,0.9556,-0.0151,-8.78,18.84,-3.17
591,1575107628,0.5571,0.9819,-0.0229,-0.73,23.96,13.84
592,1575112629,0.5483,1.0063,-0.0317,6.71,29.15,31.40
593,1575117628,0.5557,1.0210,-0.0283,12.62,34.21,49.45
594,1575122629,0.5430,1.0283,-0.0234,16.77,39.70,67.68
595,1575127629,0.5493,1.0244,-0.0210,19.27,45.06,85.49
596,1575132629,0.5449,1.0049,-0.0317,21.16,50.49,104.21
597,1575137629,0.5356,0.9604,-0.0605,23.05,55.91,122.87
598,1575142629,0.5239,0.9126,-0.0811,24.76,61.04,141.71
599,1575147629,0.5454,0.8564,-0.0815,25.12,65.79,160.55
600,1575152629,0.5820,0.7969,-0.0640,23.41,70.98,179.39
601,1575157629,0.6138,0.7163,-0.0435,19.57,76.10,197.99
602,1575162629,0.6440,0.6392,-0.0234,12.99,81.16,216.16
603,1575167629,0.6514,0.5532,0.0010,4.45,86.28,233.72
604,1575172629,0.6523,0.4639,0.0332,-5.85,90.30,250.49
605,1575177629,0.6582,0.3638,0.0718,-16.89,94.45,266.40
606,1575182629,0.6709,0.2632,0.1191,-27.50,98.11,281.28
607,1575187629,0.6782,0.1299,0.1899,-37.07,101.04,294.88
608,1575192627,0.7188,-0.0386,0.2705,-45.06,103.60,307.32
609,1575197631,0.7666,-0.1665,0.3159,-52.01,105.55,318.35
610,1575203104,0.7852,-0.2891,0.3486,-58.29,106.22,328.54
611,1575207629,1.6968,-6.6523,2.8291,-42.26,103.29,322.68
612,1575212629,1.3413,-6.2910,1.3335,164.21,92.62,127.87
613,1575217629,2.1606,-5.0854,-0.1348,128.72,77.26,35.85
614,1575222630,1.0991,-4.3701,1.1450,89.57,76.71,6.34
615,1575227629,0.9229,-2.3418,1.4312,71.16,80.00,-7.01
616,1575232629,1.1636,-0.0654,0.1084,56.71,76.46,-17.74
617,1575237629,1.1196,1.1191,-0.2812,30.24,69.82,-26.04
618,1575242629,0.9941,0.6250,0.8994,-1.83,70.30,-31.59
619,1575247629,0.8975,-0.6279,1.1904,-32.38,73.11,-34.33
620,1575252629,0.8701,-1.5747,0.4067,-58.66,68.96,-35.91
621,1575257629,0.8320,-1.6528,0.4385,-78.84,62.62,-38.72
622,1575262629,0.8086,-1.0645,1.0620,-91.65,60.30,-43.84
623,1575267629,0.8130,-0.4302,0.8984,-96.34,57.68,-50.61
624,1575272629,0.7935,-0.2163,0.4346,-92.62,50.30,-57.80
625,1575277629,0.7456,-0.4761,0.7578,-82.26,43.29,-64.45
626,1575282627,0.7090,-0.9297,1.1973,-67.20,38.78,-70.24
627,1575287629,0.7046,-1.2183,0.9443,-48.54,32.50,-75.91
628,1575292629,0.7046,-1.1494,0.6841,-27.26,23.66,-82.13
629,1575297630,0.6812,-0.8647,0.9688,-4.88,15.91,-89.70
630,1575302629,0.6743,-0.6240,1.1367,17.26,9.82,-98.11
631,1575307629,0.6924,-0.5762,0.8931,38.35,2.01,-106.40
632,1575312629,0.6870,-0.6724,0.8413,56.83,-6.95,-114.27
633,1575317629,0.6846,-0.7910,1.1172,71.34,-14.39,-121.65
634,1575322629,0.6719,-0.8091,1.1313,81.46,-21.34,-128.72
635,1575327629,0.6626,-0.7100,0.8936,86.28,-29.94,-135.61
636,1575332629,0.6196,-0.5596,0.8770,86.16,-39.09,-142.26
637,1575337629,0.5820,-0.4336,1.0166,80.85,-47.01,-148.17
638,1575342629,0.5791,-0.3633,0.9204,71.04,-54.39,-153.23
639,1575347629,0.6011,-0.3291,0.7407,57.26,-62.44,-157.26
640,1575352629,0.6167,-0.2808,0.7651,40.30,-69.57,-160.37
641,1575357629,0.6411,-0.1997,0.8125,21.04,-74.94,-162.56
642,1575362629,0.6636,-0.0840,0.6841,1.16,-79.63,-163.78
643,1575367629,0.6802,0.0210,0.5894,-20.98,-83.96,-163.96
644,1575372910,0.6855,0.1299,0.5396,-36.28,-86.77,-162.80
645,1575377629,0.6895,0.2031,0.5811,-45.79,-87.56,-160.98
646,1575382629,0.7114,0.2544,0.4458,-54.51,-88.54,-157.20
647,1575387629,0.7363,0.3120,0.3833,-60.24,-89.02,-151.89
648,1575392629,0.7319,0.3926,0.3999,-64.15,-88.41,-145.00
649,1575397629,0.7422,0.4849,0.3643,-66.34,-86.83,-136.95
650,1575402629,0.7554,0.5806,0.2832,-67.32,-85.06,-127.56
651,1575407630,0.7520,0.6680,0.2778,-66.83,-82.44,-116.89
652,1575412629,0.7524,0.7554,0.2954,-65.43,-78.72,-105.06
653,1575417630,0.7461,0.8354,0.2534,-62.74,-74.76,-91.89
654,1575422629,0.7314,0.9141,0.1997,-59.39,-70.43,-77.80
655,1575427629,0.7002,1.0029,0.1963,-55.12,-65.67,-62.44
656,1575432629,0.6665,1.0767,0.2085,-50.61,-60.43,-45.91
657,1575437629,0.6592,1.1548,0.1733,-45.98,-54.88,-28.23
658,1575442629,0.6670,1.2314,0.1528,-40.61,-48.90,-9.51
659,1575447629,0.6704,1.2812,0.1631,-34.33,-42.44,10.24
660,1575452629,0.6646,1.3184,0.1533,-27.07,-35.61,30.85
661,1575457629,0.6562,1.3354,0.1382,-18.72,-28.54,52.44
662,1575462629,0.6543,1.3481,0.1436,-9.88,-21.34,74.63
663,1575467629,0.6455,1.3452,0.1504,-0.30,-13.78,96.95
664,1575472629,0.6226,1.3096,0.1450,9.76,-6.34,119.70
665,1575477629,0.5913,1.2666,0.1060,20.00,0.85,142.44
666,1575482629,0.5615,1.2119,0.1016,29.76,7.87,165.30
667,1575487630,0.5493,1.1558,0.1113,38.11,14.94,187.50
668,1575493016,0.5347,1.0781,0.1265,45.55,23.35,213.48
669,1575497629,0.5234,1.0107,0.1221,49.09,28.96,229.94
670,1575502630,0.4971,0.9165,0.1392,52.07,35.67,249.82
671,1575507629,0.4678,0.7954,0.1553,53.66,42.32,268.84
672,1575512629,0.4531,0.6509,0.1631,53.90,48.41,286.71
673,1575517630,0.4565,0.5210,0.1753,52.68,54.21,303.78
674,1575522629,0.4507,0.4102,0.2007,49.94,59.39,319.27
675,1575527629,0.4141,0.2871,0.2080,45.55,63.84,333.29
676,1575532629,0.3833,0.1685,0.2202,39.51,67.44,345.55
677,1575537629,0.3735,0.0430,0.2476,32.38,70.18,356.04
678,1575542629,0.5098,-1.0576,0.3452,24.15,72.07,364.63
679,1575547629,1.6812,-14.5630,-1.1699,96.28,75.55,196.52
680,1575552629,2.4268,-5.0645,-0.7568,65.24,56.95,45.67
681,1575557629,1.5894,-0.6206,1.2207,41.46,66.52,-3.72
682,1575562629,0.6216,1.0884,0.3589,49.15,81.77,-23.72
683,1575567629,0.9692,0.8047,-0.0371,62.74,65.73,-30.43
684,1575572629,0.9800,-0.3013,0.9678,57.32,63.78,-28.48
685,1575577629,0.8994,-1.4395,0.9556,37.07,66.77,-22.07
686,1575582629,0.9038,-1.6211,-0.0049,15.61,63.60,-15.43
687,1575587629,0.9482,-0.8042,0.1235,2.93,59.94,-12.56
688,1575592629,0.9175,0.1084,0.7690,-8.29,61.71,-12.68
689,1575597629,0.8672,0.3662,0.4702,-24.27,62.87,-12.50
690,1575602629,0.8467,0.0112,0.0435,-42.44,60.37,-10.61
691,1575607629,0.8257,-0.5103,0.4600,-60.06,59.21,-7.56
692,1575612703,0.8115,-0.8081,0.7661,-75.43,60.98,-4.09
693,1575617629,0.8291,-0.7417,0.3438,-86.65,60.18,-1.22
694,1575622629,0.8423,-0.4380,0.1445,-93.66,57.13,0.61
695,1575627629,0.8408,-0.1855,0.5415,-97.32,56.40,1.89
696,1575632629,0.8511,-0.1558,0.6650,-98.35,56.83,2.87
697,1575637627,0.8315,-0.3252,0.3721,-96.71,55.06,3.78
698,1575642629,0.8135,-0.5151,0.3745,-93.23,52.20,4.63
699,1575647629,0.7788,-0.6089,0.6475,-88.72,51.10,5.24
700,1575652629,0.7520,-0.5679,0.6201,-84.27,50.00,5.30
701,1575657629,0.7261,-0.4546,0.4346,-80.18,47.26,4.82
702,1575662629,0.6919,-0.3589,0.5469,-76.77,44.82,3.96
703,1575667629,0.6548,-0.3418,0.7495,-73.78,44.09,2.93
704,1575672629,0.6631,-0.3960,0.6689,-70.49,43.05,1.95
705,1575677629,0.6826,-0.4658,0.5322,-66.40,40.61,1.22
706,1575682629,0.6968,-0.4795,0.6147,-61.95,38.35,0.85
707,1575687629,0.7051,-0.4448,0.7104,-57.38,36.59,0.61
708,1575692627,0.7104,-0.3955,0.6201,-52.80,34.33,0.55
709,1575697629,0.7119,-0.3657,0.5903,-46.46,30.79,0.79
710,1575702629,0.7339,-0.3369,0.7432,-37.99,27.80,1.34
711,1575707629,0.7588,-0.3428,0.7661,-30.37,24.88,2.13
712,1575712629,0.7822,-0.3530,0.6401,-26.22,21.95,3.11
713,1575717629,0.8018,-0.3418,0.6118,-24.51,18.84,3.84
714,1575722629,0.8149,-0.3247,0.7012,-24.45,16.22,4.57
715,1575727629,0.8198,-0.3101,0.7090,-25.79,14.02,5.24
716,1575732629,0.8389,-0.3096,0.6387,-28.29,11.34,6.04
717,1575737629,0.8569,-0.3203,0.6450,-31.83,8.29,6.83
718,1575742629,0.8447,-0.3584,0.7095,-36.28,5.79,7.87
719,1575747629,0.7910,-0.3926,0.7095,-41.22,2.80,9.09
720,1575752629,0.7510,-0.4170,0.6816,-45.73,-0.79,10.24
721,1575757629,0.7495,-0.4355,0.7036,-51.46,-4.39,10.67
722,1575762629,0.7495,-0.4292,0.7554,-58.78,-7.68,10.85
723,1575767629,0.7417,-0.4141,0.7363,-66.77,-11.52,11.28
724,1575772629,0.7495,-0.3511,0.6831,-74.63,-15.98,11.34
725,1575777629,0.7852,-0.3042,0.7373,-84.21,-20.49,10.43
726,1575782628,0.7778,-0.5391,0.7920,-94.51,-24.82,8.72
727,1575787628,0.7603,-0.7168,0.7563,-106.71,-28.66,5.79
728,1575792629,0.6938,-0.6958,0.7539,-112.93,-33.60,3.17
729,1575797628,0.7319,-0.6128,0.7461,-118.35,-38.72,2.26
730,1575802629,0.7734,-0.5869,0.6680,-124.09,-43.84,1.52
731,1575807628,0.7881,-0.5889,0.5737,-131.34,-49.02,0.12
732,1575812629,0.7695,-0.5996,0.5610,-140.06,-53.54,-2.38
733,1575817628,0.7368,-0.6421,0.6289,-147.99,-57.32,-4.94
734,1575822749,0.7227,-0.6826,0.6094,-154.76,-60.73,-7.01
735,1575827630,0.7607,-0.7290,0.5508,-161.22,-63.54,-8.96
736,1575832629,0.8315,-0.7544,0.5073,-167.87,-65.85,-10.91
737,1575837628,0.8975,-0.7637,0.4512,-174.15,-67.68,-13.05
738,1575842627,0.9355,-0.7686,0.3696,-180.12,-69.57,-15.55
739,1575847629,0.9453,-0.8052,0.3145,-186.52,-71.34,-18.41
740,1575852629,0.9380,-0.8447,0.3271,-192.74,-72.68,-21.46
741,1575857629,0.9185,-0.8354,0.2993,-198.72,-73.60,-24.70
742,1575862629,0.8076,-0.8242,0.5229,-205.37,-73.11,-28.35
743,1575867629,0.8281,-0.7681,0.3984,-213.29,-71.22,-32.44
744,1575872629,0.8672,-0.6899,0.2959,-220.85,-69.51,-36.65
745,1575877629,0.8921,-0.5991,0.2046,-227.80,-69.15,-41.16
746,1575882627,0.7930,-0.5566,0.2324,-232.20,-68.90,-45.79
747,1575888025,0.7334,-0.5225,0.1147,-234.09,-67.87,-50.61
748,1575892629,0.7520,-0.5166,0.0664,-234.09,-67.26,-53.41
749,1575897628,0.8623,-0.5234,-0.0864,-232.93,-67.44,-56.22
750,1575902629,1.0054,-0.5327,-0.1733,-230.98,-68.29,-58.41
751,1575907628,1.0977,-0.5220,-0.1362,-228.17,-69.21,-60.00
752,1575912629,1.0732,-0.5405,-0.0967,-224.88,-69.57,-60.91
753,1575917628,1.0024,-0.5454,-0.1167,-221.40,-69.94,-61.16
754,1575922629,0.8823,-0.5996,-0.1362,-217.13,-70.43,-60.55
755,1575927628,0.8999,-0.4766,-0.1709,-211.83,-70.43,-59.02
756,1575932631,0.9746,-0.2910,-0.2007,-206.52,-70.73,-57.99
757,1575937628,0.9922,-0.2822,-0.1987,-201.04,-70.61,-57.74
758,1575943113,0.9629,-0.3491,-0.1934,-194.21,-70.18,-56.65
759,1575947629,0.9546,-0.3525,-0.2212,-190.00,-69.94,-55.91
760,1575952629,0.9419,-0.3545,-0.2500,-184.94,-69.33,-55.18
761,1575957630,0.9351,-0.3750,-0.2837,-180.06,-68.84,-54.82
762,1575962629,0.9292,-0.4009,-0.2803,-175.37,-67.99,-54.82
763,1575967629,0.9087,-0.4019,-0.2949,-171.34,-67.01,-55.18
764,1575972629,0.8848,-0.3838,-0.3013,-167.93,-65.73,-56.16
765,1575977629,0.8647,-0.3579,-0.2837,-165.67,-64.09,-57.74
766,1575982627,0.8301,-0.3350,-0.2241,-165.55,-61.46,-59.82
767,1575987629,0.7798,-0.3130,-0.1558,-167.62,-57.68,-62.01
768,1575992629,0.7754,-0.3071,-0.1045,-171.52,-52.87,-63.90
769,1575997628,0.7764,-0.3501,-0.1309,-176.16,-47.93,-65.49
770,1576002631,0.7715,-0.4268,-0.1812,-180.24,-43.05,-66.04
771,1576007628,0.7114,-0.6504,-0.0034,-183.35,-37.80,-65.24
772,1576012627,0.6738,-1.0776,0.1182,-187.44,-30.91,-60.73
773,1576017629,0.7358,-0.7256,-0.2339,-192.74,-25.49,-54.94
774,1576022787,0.8286,-0.3818,-0.3096,-195.37,-22.50,-52.01
775,1576027629,0.9048,-0.1816,-0.1909,-193.66,-19.51,-51.71
776,1576032629,0.9482,-0.1772,-0.0132,-187.62,-15.49,-52.07
777,1576037629,0.8301,-0.2808,0.0083,-178.35,-11.10,-51.22
778,1576042629,0.9033,-0.3525,-0.0728,-167.80,-7.13,-48.84
779,1576047629,1.0513,-0.3633,-0.1567,-156.83,-4.27,-45.30
780,1576052629,1.0967,-0.3218,-0.2461,-145.55,-2.38,-41.71
781,1576057629,1.1260,-0.2646,-0.2637,-132.74,-0.85,-38.54
782,1576062629,1.1416,-0.2559,-0.2803,-120.00,0.79,-35.49
783,1576067629,1.1558,-0.2266,-0.3682,-109.15,2.93,-32.56
784,1576072629,1.1401,-0.1904,-0.4458,-100.24,5.06,-30.00
785,1576077629,1.1279,-0.1479,-0.4424,-93.78,7.44,-27.80
786,1576082629,1.1235,-0.1104,-0.4062,-88.48,10.24,-26.16
787,1576087629,1.1235,-0.1470,-0.4727,-82.56,13.17,-25.12
788,1576092629,1.1128,-0.2095,-0.5078,-75.37,15.30,-23.72
789,1576097629,1.1240,-0.2334,-0.5015,-66.52,16.89,-22.44
790,1576102627,1.1616,-0.2061,-0.5479,-56.46,18.60,-21.40
791,1576107629,1.2559,-0.1143,-0.6089,-45.61,19.82,-20.91
792,1576112629,1.2925,-0.0928,-0.6196,-36.16,21.16,-20.91
793,1576117628,1.2456,-0.1499,-0.6245,-28.60,22.38,-20.55
794,1576122631,1.1924,-0.2295,-0.6216,-21.40,23.17,-19.51
795,1576127628,1.2100,-0.2725,-0.6079,-13.90,23.17,-17.99
796,1576132629,1.2163,-0.2720,-0.5840,-5.98,23.29,-16.46
797,1576137628,1.1675,-0.2559,-0.5708,1.89,23.23,-15.24
798,1576142747,1.1040,-0.2695,-0.5923,9.70,23.05,-14.09
799,1576147629,1.0601,-0.2676,-0.5898,16.71,22.44,-13.35
800,1576152629,1.0547,-0.2700,-0.5469,22.80,22.26,-13.05
801,1576157629,1.0737,-0.2852,-0.4946,27.01,21.89,-13.29
802,1576162630,1.0781,-0.2993,-0.4531,29.51,21.77,-14.27
803,1576167629,1.0635,-0.3232,-0.4106,30.06,21.46,-15.91
804,1576172629,1.0703,-0.3530,-0.3691,28.35,20.79,-17.99
805,1576177629,1.0815,-0.3848,-0.3267,24.27,19.70,-20.37
806,1576182629,1.1040,-0.4111,-0.2681,17.80,17.74,-22.99
807,1576187629,1.1108,-0.4429,-0.2158,8.96,15.55,-25.91
808,1576192628,1.0815,-0.4521,-0.1392,-4.15,13.11,-28.66
809,1576197631,1.0796,-0.4600,-0.1636,-19.76,9.82,-31.52
810,1576202629,1.0547,-0.4824,-0.1206,-35.00,5.67,-34.45
811,1576207629,1.0225,-0.4653,-0.0215,-49.82,1.34,-37.38
812,1576212629,1.0293,-0.4556,0.0132,-64.21,-3.35,-40.49
813,1576217630,1.0342,-0.4204,-0.0220,-81.16,-7.74,-43.23
814,1576222629,1.0503,-0.3789,-0.0703,-99.82,-12.38,-45.55
815,1576227629,1.0527,-0.3823,-0.0693,-115.73,-17.26,-47.50
816,1576232627,1.0488,-0.3838,-0.0820,-129.21,-22.01,-48.90
817,1576237629,1.0449,-0.3525,-0.1885,-143.78,-26.52,-50.37
818,1576242629,1.0469,-0.3286,-0.2188,-158.96,-30.43,-51.71
819,1576247629,1.0591,-0.3296,-0.2153,-171.59,-33.60,-52.68
820,1576252629,1.0586,-0.3271,-0.2632,-182.32,-36.16,-53.72
821,1576257629,1.0527,-0.3291,-0.3398,-190.43,-38.41,-54.70
822,1576262629,1.0317,-0.3247,-0.3799,-195.12,-40.67,-55.79
823,1576267629,1.0137,-0.3213,-0.3799,-197.13,-41.95,-57.07
824,1576272629,0.9902,-0.3120,-0.3955,-197.26,-42.80,-58.35
825,1576277629,0.9746,-0.2969,-0.4316,-196.16,-43.23,-59.70
826,1576282629,0.9639,-0.2842,-0.4395,-193.48,-43.05,-60.67
827,1576287629,0.9546,-0.2666,-0.4487,-189.51,-42.13,-61.52
828,1576292627,1.0127,-0.2271,-0.5791,-184.02,-40.55,-61.83
829,1576297627,1.0562,-0.2310,-0.8130,-178.35,-36.22,-61.65
830,1576302631,1.0479,-0.2085,-0.9331,-171.22,-28.05,-61.22
831,1576307628,1.0107,-0.1865,-0.8750,-159.76,-19.02,-59.82
832,1576312629,0.9663,-0.1606,-0.6763,-143.11,-12.32,-57.74
833,1576317628,0.9556,-0.1357,-0.4839,-123.72,-9.21,-54.51
834,1576322629,0.9229,-0.1235,-0.3701,-105.67,-8.35,-51.16
835,1576327628,0.8647,-0.1421,-0.3657,-93.17,-8.54,-48.23
836,1576332629,0.8652,-0.1187,-0.3730,-87.68,-8.35,-45.79
837,1576337628,0.8530,-0.1123,-0.3740,-88.35,-8.48,-43.72
838,1576342629,0.8325,-0.0391,-0.4287,-95.91,-8.29,-41.46
839,1576347633,0.8213,0.0073,-0.4834,-110.73,-7.44,-38.60
840,1576352627,0.8032,0.0166,-0.5361,-128.60,-6.46,-35.24
841,1576357628,0.8179,0.0234,-0.5513,-147.56,-5.18,-31.40
842,1576362631,0.8301,0.0317,-0.5693,-164.63,-3.41,-27.20
843,1576367628,0.8271,0.0254,-0.5786,-177.01,-1.77,-22.93
844,1576373129,0.8237,0.0073,-0.5923,-184.63,-0.06,-17.87
845,1576377630,0.8149,-0.0010,-0.5903,-185.98,0.73,-14.70
846,1576382629,0.8101,-0.0293,-0.5801,-184.76,2.01,-10.85
847,1576387629,0.7988,-0.0537,-0.5845,-181.59,3.41,-7.50
848,1576392627,0.7734,-0.0752,-0.5713,-177.20,5.18,-4.57
849,1576397629,0.7544,-0.0972,-0.5820,-172.20,6.89,-2.38
850,1576402629,0.7466,-0.1167,-0.5889,-167.07,8.84,-0.55
851,1576407628,0.7432,-0.1392,-0.6064,-162.62,10.85,0.79
852,1576412629,0.7363,-0.1523,-0.6133,-159.21,12.74,1.71
853,1576417628,0.7393,-0.1748,-0.6177,-157.56,14.70,2.32
854,1576422629,0.7476,-0.1812,-0.6187,-157.99,16.89,2.38
855,1576427629,0.7632,-0.1968,-0.6182,-160.55,18.84,2.32
856,1576432925,0.7642,-0.2129,-0.6201,-164.82,20.67,2.07
857,1576437630,0.7568,-0.2388,-0.6108,-170.43,22.62,1.77
858,1576442629,0.7681,-0.2524,-0.6050,-176.46,24.27,1.46
859,1576447629,0.7979,-0.2432,-0.5962,-182.20,25.79,0.85
860,1576452629,0.7944,-0.2554,-0.5869,-187.26,27.20,0.00
861,1576457630,0.7749,-0.2588,-0.5737,-191.34,28.35,-0.67
862,1576462629,0.7622,-0.2627,-0.5659,-194.63,29.45,-1.46
863,1576467629,0.7715,-0.2583,-0.5420,-197.20,30.24,-2.56
864,1576472629,0.7803,-0.2549,-0.5127,-199.02,31.34,-3.48
865,1576477629,0.7930,-0.2524,-0.4961,-199.88,32.38,-4.21
866,1576482629,0.8057,-0.2500,-0.4800,-199.82,33.29,-4.76
867,1576487629,0.8218,-0.2510,-0.4644,-198.96,34.15,-5.18
868,1576492629,0.8428,-0.2583,-0.4541,-197.93,34.94,-5.37
869,1576497629,0.8579,-0.2773,-0.4468,-197.07,35.67,-5.43
870,1576502629,0.8716,-0.2837,-0.4385,-197.26,36.28,-5.55
871,1576507629,0.8599,-0.2803,-0.4165,-198.84,37.01,-6.04
872,1576512627,0.8506,-0.2817,-0.4019,-202.20,37.62,-6.95
873,1576517629,0.8398,-0.2803,-0.3965,-207.20,38.17,-8.29
874,1576522627,0.8340,-0.2837,-0.3921,-213.48,38.90,-10.00
875,1576527629,0.8291,-0.2832,-0.3911,-220.55,39.39,-12.07
876,1576532629,0.8311,-0.2842,-0.3750,-228.29,40.06,-14.45
877,1576537629,0.8242,-0.3076,-0.3584,-236.10,40.85,-16.77
878,1576542627,0.8115,-0.3208,-0.3433,-243.23,41.40,-18.96
879,1576547627,0.8159,-0.3242,-0.3179,-248.84,41.95,-20.91
880,1576552627,0.8247,-0.3140,-0.3062,-252.01,42.38,-22.80
881,1576557627,0.8447,-0.3086,-0.2954,-252.44,42.68,-24.63
882,1576562629,0.8667,-0.3042,-0.2817,-250.55,42.68,-26.34
883,1576567628,0.9121,-0.3057,-0.2568,-247.26,42.74,-27.74
884,1576572629,0.8672,-0.3335,-0.2275,-243.90,42.80,-28.66
885,1576577628,0.8584,-0.3257,-0.2017,-240.24,42.99,-29.21
886,1576582629,0.8779,-0.3105,-0.1665,-236.22,43.48,-29.57
887,1576587628,0.9097,-0.2983,-0.1460,-232.01,43.84,-29.76
888,1576592628,0.9448,-0.2993,-0.1099,-227.50,44.45,-30.00
889,1576597629,0.9575,-0.3091,-0.0869,-225.12,44.88,-30.12
890,1576602628,0.9526,-0.3154,-0.0552,-222.87,45.91,-30.43
891,1576607627,0.9492,-0.3149,-0.0552,-222.13,46.65,-30.79
892,1576612629,0.9619,-0.3013,-0.0601,-222.80,47.07,-31.46
893,1576617628,0.9678,-0.2900,-0.0215,-225.12,47.74,-32.38
894,1576622629,0.9634,-0.2876,0.0166,-229.45,48.23,-33.54
895,1576627629,0.9443,-0.2930,0.0186,-235.06,48.60,-34.94
896,1576632627,0.9189,-0.2910,0.0269,-241.52,49.15,-36.40
897,1576637627,0.9248,-0.3271,0.0488,-247.99,49.76,-37.87
898,1576643052,0.9097,-0.3340,0.0864,-255.24,50.30,-39.21
899,1576647629,0.9082,-0.3110,0.0791,-258.84,50.79,-40.00
900,1576652629,0.9102,-0.2900,0.0938,-261.10,51.52,-40.91
901,1576657629,0.8999,-0.2896,0.1035,-260.73,52.44,-41.77
902,1576662629,0.9009,-0.2993,0.0952,-257.93,53.11,-42.38
903,1576667629,0.9150,-0.3052,0.0791,-253.48,53.48,-42.68
904,1576672629,0.9253,-0.3047,0.1064,-247.74,53.96,-42.80
905,1576677629,0.9282,-0.3076,0.1411,-241.28,54.70,-43.05
906,1576682627,0.9526,-0.3149,0.1465,-233.05,55.55,-43.35
907,1576687629,0.9751,-0.3188,0.1353,-227.56,56.16,-43.54
908,1576692629,0.9766,-0.3306,0.1470,-221.46,56.83,-43.96
909,1576697629,0.9639,-0.3379,0.1743,-216.71,57.62,-44.63
910,1576702627,0.9419,-0.3389,0.1992,-213.84,58.84,-45.61
911,1576707629,0.9224,-0.3315,0.2437,-212.99,60.24,-46.77
912,1576712629,0.9316,-0.3252,0.2651,-213.90,62.32,-48.29
913,1576717628,0.9346,-0.3262,0.2788,-216.10,64.51,-49.94
914,1576722629,0.9180,-0.3271,0.2915,-219.15,66.77,-51.40
915,1576727628,0.8955,-0.3223,0.3179,-222.68,69.09,-52.93
916,1576732629,0.8853,-0.3076,0.3340,-225.67,71.71,-54.39
917,1576737628,0.8735,-0.3027,0.3369,-227.80,74.33,-55.98
918,1576742629,0.8823,-0.3198,0.3267,-229.39,76.83,-57.32
919,1576747628,0.8843,-0.3213,0.3330,-230.30,79.09,-58.41
920,1576752629,0.8770,-0.3188,0.3433,-230.67,81.22,-59.45
921,1576757628,0.8540,-0.3184,0.3569,-230.12,83.11,-60.55
922,1576762629,0.8232,-0.3193,0.3730,-228.29,85.85,-61.52
923,1576767629,0.8184,-0.3184,0.3892,-224.63,86.77,-62.44
924,1576772629,0.8467,-0.3325,0.4004,-218.90,89.45,-63.29
925,1576777628,0.8652,-0.3291,0.4067,-211.46,91.22,-64.15
926,1576782629,0.8560,-0.3232,0.4189,-202.87,93.11,-65.18
927,1576787628,0.8398,-0.3257,0.4429,-194.09,94.63,-66.34
928,1576792629,0.8188,-0.3257,0.4800,-185.98,96.52,-67.68
929,1576797628,0.8062,-0.3125,0.5049,-179.02,98.29,-69.33
930,1576802629,0.8052,-0.3027,0.5269,-173.72,99.82,-71.16
931,1576807628,0.8022,-0.2988,0.5591,-170.30,101.40,-73.23
932,1576812629,0.7925,-0.2910,0.5854,-169.27,102.93,-75.30
933,1576817628,0.7808,-0.2822,0.6060,-169.82,104.39,-77.44
934,1576822629,0.7700,-0.2803,0.6289,-172.26,105.55,-79.70
935,1576827628,0.7734,-0.2964,0.6499,-176.16,106.65,-81.95
936,1576832630,0.7891,-0.3154,0.6553,-181.16,107.68,-83.84
937,1576837628,0.7861,-0.3159,0.6699,-186.71,108.41,-85.91
938,1576842631,0.7739,-0.3101,0.6841,-192.01,108.90,-87.87
939,1576847628,0.7388,-0.3228,0.7075,-197.44,109.27,-90.12
940,1576852629,0.7109,-0.3330,0.7207,-202.62,109.88,-92.26
941,1576857628,0.6768,-0.3345,0.7520,-206.83,110.37,-94.57
942,1576862627,0.6528,-0.3438,0.7622,-209.27,110.91,-96.52
943,1576867629,0.6460,-0.3452,0.7969,-208.96,111.46,-98.29
944,1576872629,0.6689,-0.3164,0.8130,-205.79,112.26,-100.06
945,1576877629,0.7041,-0.3027,0.8130,-199.88,112.74,-101.83
946,1576882629,0.7139,-0.3198,0.8340,-192.01,112.87,-103.29
947,1576887629,0.7373,-0.3242,0.8652,-183.35,112.93,-104.94
948,1576892629,0.7476,-0.3125,0.8916,-174.70,112.56,-106.59
949,1576897629,0.7344,-0.3135,0.9092,-166.28,111.89,-108.48
950,1576902629,0.7339,-0.3218,0.9087,-159.27,111.28,-110.43
951,1576907629,0.7495,-0.3291,0.9111,-153.66,110.18,-112.56
952,1576912629,0.7441,-0.3569,0.8696,-150.24,108.60,-114.39
953,1576917629,0.7461,-0.3350,0.9175,-149.33,107.50,-116.34
954,1576922629,0.7158,-0.3159,0.9673,-150.55,106.59,-118.78
955,1576927629,0.6855,-0.3076,0.9917,-153.54,106.34,-120.98
956,1576932629,0.6807,-0.3081,0.9932,-157.44,106.28,-123.23
957,1576937629,0.6880,-0.3125,0.9941,-161.40,106.52,-125.30
958,1576942629,0.6836,-0.3081,1.0020,-165.06,107.01,-126.95
959,1576947629,0.6572,-0.2974,1.0186,-167.62,107.50,-128.54
960,1576952629,0.6270,-0.2964,1.0278,-169.27,108.17,-129.94
961,1576957629,0.6143,-0.3052,1.0410,-169.94,108.72,-131.28
962,1576962629,0.6069,-0.3105,1.0508,-169.33,109.39,-132.50
963,1576967630,0.5732,-0.3003,1.0674,-167.74,110.06,-133.48
964,1576972627,0.5376,-0.3022,1.0815,-165.18,110.37,-134.57
965,1576977629,0.5156,-0.3105,1.1055,-161.77,110.85,-135.30
966,1576982629,0.5190,-0.3188,1.1113,-157.56,111.52,-135.98
967,1576987628,0.5303,-0.3154,1.1240,-152.74,112.13,-136.40
968,1576992629,0.5273,-0.3120,1.1362,-147.44,112.74,-136.65
969,1576997628,0.5293,-0.3076,1.1514,-142.50,113.48,-136.71
970,1577002630,0.5239,-0.3027,1.1782,-138.11,114.57,-136.65
971,1577007629,0.5361,-0.3110,1.1797,-134.39,115.91,-136.40
972,1577012627,0.5200,-0.3311,1.1890,-132.01,117.32,-135.98
973,1577017631,0.5029,-0.3315,1.1982,-130.30,119.09,-135.06
974,1577022628,0.4990,-0.3174,1.2217,-128.90,121.16,-134.15
975,1577027629,0.5161,-0.3472,1.2344,-127.80,123.17,-133.17
976,1577032629,0.5386,-0.3774,1.2451,-127.38,125.30,-132.07
977,1577037628,0.5122,-0.3779,1.2720,-127.07,127.07,-131.04
978,1577042807,0.4497,-0.3784,1.2754,-126.71,128.66,-130.30
979,1577047629,0.3916,-0.3892,1.2773,-126.22,130.06,-130.06
980,1577052628,0.3579,-0.3950,1.2817,-125.43,131.16,-130.12
981,1577057629,0.3242,-0.4028,1.2754,-124.33,132.13,-130.30
982,1577062629,0.2886,-0.4126,1.2720,-122.50,132.74,-130.61
983,1577067629,0.2461,-0.4097,1.2598,-120.43,133.23,-130.85
984,1577072629,0.2275,-0.4028,1.2622,-117.93,133.96,-131.40
985,1577077628,0.1821,-0.3901,1.2773,-115.24,134.09,-131.71
986,1577082629,0.1152,-0.3726,1.2954,-112.50,134.76,-132.01
987,1577087628,0.0830,-0.3506,1.3101,-109.63,135.24,-132.26
988,1577092629,0.0835,-0.3286,1.3135,-106.34,135.79,-132.20
989,1577097628,0.0762,-0.3374,1.3125,-102.99,136.46,-132.07
990,1577102629,0.0791,-0.3452,1.2847,-98.96,136.89,-131.34
991,1577107628,0.1089,-0.3403,1.2783,-94.45,136.59,-130.24
992,1577112629,0.1338,-0.3252,1.2617,-89.82,136.22,-128.72
993,1577117628,0.1465,-0.3164,1.2637,-85.30,135.49,-127.20
994,1577122631,0.1665,-0.3042,1.2539,-81.46,134.70,-125.18
995,1577127628,0.2021,-0.3281,1.2480,-78.23,133.60,-123.23
996,1577132629,0.2227,-0.3223,1.2563,-76.28,132.44,-121.10
997,1577137628,0.2412,-0.3081,1.2412,-75.12,130.98,-119.09
998,1577142629,0.2256,-0.3154,1.2520,-75.06,129.88,-116.95
999,1577147628,0.1743,-0.3213,1.2451,-75.91,128.90,-115.00
1000,1577152629,0.1089,-0.3130,1.2578,-77.74,127.99,-113.11
1001,1577157628,0.0317,-0.2852,1.2417,-79.82,127.38,-111.71
1002,1577162629,-0.0605,-0.3076,1.2246,-82.01,126.95,-110.30
1003,1577167628,-0.1196,-0.3188,1.1958,-84.63,126.40,-108.96
1004,1577172632,-0.1646,-0.3154,1.1807,-87.26,125.67,-107.38
1005,1577177628,-0.2173,-0.2905,1.1890,-89.76,125.24,-105.79
1006,1577182629,-0.2739,-0.2891,1.1826,-92.32,124.82,-104.27
1007,1577187628,-0.3022,-0.3125,1.1895,-95.37,124.63,-102.74
1008,1577192629,-0.3057,-0.3247,1.1709,-98.96,124.63,-100.61
1009,1577197631,-0.2725,-0.3379,1.1484,-102.74,124.45,-98.29
1010,1577202629,-0.2407,-0.3452,1.1357,-106.83,124.39,-95.24
1011,1577207628,-0.2227,-0.3521,1.1211,-110.91,124.33,-91.89
1012,1577212629,-0.2129,-0.3604,1.1108,-115.18,124.51,-87.99
1013,1577217628,-0.2104,-0.3677,1.1240,-119.39,124.39,-83.84
1014,1577222629,-0.2285,-0.3496,1.1489,-123.48,124.76,-79.33
1015,1577227628,-0.2891,-0.3354,1.1504,-126.65,124.94,-74.63
1016,1577232629,-0.3457,-0.3320,1.1333,-128.90,124.94,-70.12
1017,1577237628,-0.3813,-0.3330,1.1235,-130.73,124.94,-65.37
1018,1577242631,-0.3779,-0.3384,1.1196,-131.52,125.00,-60.43
1019,1577247628,-0.3848,-0.3809,1.1274,-131.46,125.18,-55.18
1020,1577252627,-0.3960,-0.3838,1.1221,-130.98,125.30,-49.45
1021,1577257629,-0.4023,-0.3608,1.1221,-129.70,125.30,-43.60
1022,1577262629,-0.4551,-0.3672,1.1348,-128.05,125.43,-37.93
1023,1577267628,-0.5459,-0.3911,1.1084,-126.22,125.37,-32.13
1024,1577272629,-0.6245,-0.3809,1.1172,-123.23,125.00,-26.65
1025,1577277726,-0.6880,-0.4170,1.1182,-120.37,124.82,-20.73
1026,1577282629,-0.6030,-0.4321,1.0811,-117.93,124.57,-14.76
1027,1577287629,-0.6714,-0.3047,1.1587,-118.17,123.60,-8.48
1028,1577292629,-0.8169,0.0620,1.3472,-134.39,119.39,0.49
1029,1577297629,-0.9736,0.5005,1.5244,-173.72,109.88,17.07
1030,1577302627,-1.0679,0.6543,1.5044,-224.09,96.59,38.90
1031,1577307629,-0.9712,0.3994,1.2866,-269.45,81.59,60.24
1032,1577312629,-0.8066,-0.0186,1.0415,-293.23,67.99,77.62
1033,1577317629,-0.6758,-0.3477,0.9204,-291.10,58.72,91.77
1034,1577322629,-0.5854,-0.5566,0.8848,-269.63,53.35,103.96
1035,1577327629,-0.5278,-0.6631,0.8804,-237.26,51.34,114.82
1036,1577332629,-0.5508,-0.7056,0.9072,-201.16,51.40,124.45
1037,1577337629,-0.6455,-0.7397,0.9082,-166.65,52.56,133.17
1038,1577342629,-0.7559,-0.7764,0.8647,-136.95,54.27,141.77
1039,1577347629,-0.8247,-0.8262,0.8433,-112.87,56.10,149.88
1040,1577352631,-0.9131,-0.8740,0.8652,-92.74,59.27,159.51
1041,1577357630,-0.9956,-0.9053,0.9111,-84.63,62.26,165.79
1042,1577362629,-1.1543,-0.9204,0.9478,-79.88,66.65,173.84
1043,1577367629,-1.3398,-0.9053,0.9844,-80.00,71.83,181.59
1044,1577372627,-1.4917,-0.8872,1.0015,-83.96,77.56,189.33
1045,1577377627,-1.6074,-0.8857,0.9839,-91.65,83.41,197.20
1046,1577382629,-1.7012,-0.9038,0.9189,-102.62,88.66,205.37
1047,1577387629,-1.7573,-0.9326,0.8906,-116.22,94.45,214.27
1048,1577393013,-1.7686,-0.9434,0.8848,-131.89,99.82,224.21
1049,1577397629,-1.7524,-0.9492,0.8701,-148.48,105.55,235.24
1050,1577402629,-1.7334,-0.9668,0.8579,-165.12,111.16,247.50
1051,1577407629,-1.7031,-1.0063,0.8428,-181.10,116.83,261.46
1052,1577412629,-1.6528,-1.0605,0.8354,-195.98,122.62,277.26
1053,1577417627,-1.5918,-1.1060,0.8169,-208.78,128.41,295.06
1054,1577422826,-1.5215,-1.1597,0.8052,-219.63,133.96,314.82
1055,1577427629,-1.4717,-1.2075,0.8198,-229.02,139.02,336.34
1056,1577432629,-1.4438,-1.2471,0.7949,-235.98,143.96,359.94
1057,1577437629,-1.4141,-1.2915,0.7627,-239.94,149.15,385.49
1058,1577442629,-1.4175,-1.3525,0.7251,-240.37,154.45,413.11
1059,1577447725,-1.4409,-1.4399,0.7256,-239.33,160.06,442.26
1060,1577452627,-1.5024,-1.5347,0.6992,-238.29,165.79,473.05
1061,1577457629,-1.6230,-1.6382,0.6699,-237.62,171.34,504.82
1062,1577462629,-1.7798,-1.7695,0.6489,-237.26,176.89,537.80
1063,1577467629,-1.9785,-1.9087,0.6411,-237.26,182.20,571.77
1064,1577472629,-2.1973,-2.0674,0.6572,-237.13,187.20,606.59
1065,1577477629,-2.4355,-2.2559,0.6650,-236.16,192.01,642.50
1066,1577482629,-2.6694,-2.4287,0.6763,-233.60,196.28,679.09
1067,1577487629,-2.9663,-2.5688,0.6841,-228.78,199.76,715.98
1068,1577492629,-3.3662,-2.6899,0.6768,-221.28,202.62,752.62
1069,1577497628,-3.8970,-2.8276,0.6777,-211.04,204.70,788.96
1070,1577502631,-4.6230,-2.9966,0.7036,-197.74,206.16,824.63
1071,1577507628,-5.5400,-3.0747,0.7104,-180.73,206.77,859.39
1072,1577512629,-6.6069,-3.0317,0.7778,-158.66,206.71,892.07
1073,1577517628,-7.6958,-2.7593,0.9131,-129.51,206.04,920.91
1074,1577522629,-9.0576,-2.3599,1.0645,-92.01,204.94,944.09
1075,1577527628,-10.1763,-1.9697,1.2222,-48.90,202.20,960.85
1076,1577532629,-10.7544,-1.6289,1.4502,-6.04,196.71,972.80
1077,1577537628,-10.9316,-1.5889,1.5264,30.18,186.28,982.74
1078,1577542629,-10.8320,-1.9438,1.5054,51.77,166.95,996.46
1079,1577547628,-10.5308,-2.3325,1.4219,50.85,135.06,1018.05
1080,1577552629,-10.0737,-2.5474,1.4878,23.84,88.84,1047.62
1081,1577557628,-9.7725,-2.7017,1.6763,-28.11,27.32,1084.02
1082,1577562629,-9.6870,-2.8491,1.9351,-99.94,-48.84,1125.43
1083,1577567628,-9.9150,-3.0601,2.0146,-185.98,-141.22,1169.88
1084,1577572839,-10.2681,-3.2427,2.0132,-275.37,-249.88,1214.82
1085,1577577629,-10.7944,-3.5737,1.9224,-350.49,-372.80,1257.38
1086,1577582629,-11.4814,-4.0151,1.6919,-398.72,-505.00,1296.46
1087,1577587630,-12.3110,-4.5479,1.4478,-414.45,-642.20,1331.22
1088,1577592629,-13.3501,-5.1787,1.0718,-399.39,-776.46,1361.34
1089,1577597629,-14.4844,-5.8281,0.6216,-362.01,-903.90,1387.93
1090,1577602629,-15.7056,-6.6572,0.2090,-314.45,-1022.56,1412.56
1091,1577607629,-15.9912,-7.4565,-0.3022,-272.32,-1127.74,1435.00
1092,1577612629,-16.0000,-7.7261,-0.5791,-240.91,-1217.80,1449.15
1093,1577617629,-16.0000,-7.9590,-0.8232,-228.17,-1290.30,1444.57
1094,1577622629,-16.0000,-8.8208,-1.5698,-236.28,-1347.07,1417.38
1095,1577627629,-16.0000,-9.6958,-2.7012,-256.95,-1392.99,1369.09
1096,1577632629,-16.0000,-10.3037,-3.6885,-289.09,-1434.76,1299.45
1097,1577637629,-16.0000,-10.5312,-4.7339,-333.11,-1472.87,1208.96
1098,1577642629,-16.0000,-10.4277,-5.4385,-398.05,-1510.43,1097.87
1099,1577647629,-16.0000,-10.0820,-5.9165,-490.85,-1552.93,969.33
1100,1577652629,-16.0000,-9.4570,-6.4355,-611.83,-1600.91,824.82
1101,1577657629,-16.0000,-8.6855,-7.0195,-760.12,-1653.05,663.23
1102,1577662629,-16.0000,-7.8354,-7.4331,-929.82,-1707.56,482.26
1103,1577667629,-15.5103,-6.8691,-7.6367,-1114.15,-1756.52,278.84
1104,1577672629,-14.2856,-5.8140,-7.7603,-1308.66,-1785.49,51.22
1105,1577677629,-13.3418,-4.8413,-7.6865,-1499.94,-1781.89,-195.91
1106,1577682629,-12.4482,-4.0889,-7.3481,-1676.46,-1739.09,-450.98
1107,1577687630,-11.5386,-3.5083,-6.8032,-1834.88,-1648.90,-700.55
1108,1577692632,-10.9414,-2.9829,-6.0845,-1971.65,-1507.56,-932.26
1109,1577697627,-10.5015,-2.4990,-5.3232,-1998.05,-1316.28,-1133.17
1110,1577702631,-9.9482,-2.3008,-4.7520,-1998.05,-1083.90,-1288.48
1111,1577707631,-9.1802,-1.9600,-4.1689,-1998.05,-827.87,-1387.80
1112,1577712629,-8.2520,-2.1743,-3.7080,-1882.01,-573.96,-1421.46
1113,1577717629,-7.9229,-2.7271,-3.2183,-1594.39,-351.10,-1390.79
1114,1577722629,-8.5806,-3.0142,-2.5361,-1231.52,-169.57,-1309.63
1115,1577727627,-9.0806,-2.5845,-1.5117,-847.01,-31.59,-1200.79
1116,1577732629,-8.6958,-1.5654,-0.6050,-494.21,71.83,-1084.27
1117,1577737628,-8.0615,-0.8315,-0.1636,-205.85,149.88,-971.95
1118,1577742629,-7.5815,-0.1855,0.3472,5.12,211.95,-868.84
1119,1577747628,-7.1396,0.4019,0.4307,144.02,264.63,-779.39
1120,1577752627,-6.8794,0.7290,-0.0283,224.94,308.23,-706.04
1121,1577757629,-6.7041,0.8984,-0.2017,261.34,338.41,-645.79
1122,1577762646,-6.5894,1.0112,-0.2886,268.41,380.18,-597.44
1123,1577767629,-6.6777,1.1104,-0.8843,259.57,407.93,-559.51
1124,1577772629,-6.6187,1.0757,-1.4727,237.07,426.77,-529.33
1125,1577777629,-6.3311,0.9766,-1.5625,199.57,440.12,-503.84
1126,1577782629,-6.1206,0.7876,-1.5464,148.11,449.70,-480.73
1127,1577787629,-6.0249,0.5054,-1.7422,86.59,454.15,-457.80
1128,1577792629,-5.8521,0.2632,-1.7676,20.00,456.04,-432.68
1129,1577797629,-5.3374,0.1924,-1.5547,-45.98,454.88,-404.76
1130,1577802629,-4.6694,0.0684,-1.4570,-102.38,451.52,-374.09
1131,1577807629,-4.0796,-0.1401,-1.5410,-141.16,443.84,-339.39
1132,1577812711,-3.5225,-0.2793,-1.5029,-158.29,431.71,-301.34
1133,1577817629,-3.0449,-0.4185,-1.3521,-153.96,416.22,-261.52
1134,1577822629,-2.7896,-0.5479,-1.2622,-131.04,397.62,-221.89
1135,1577827629,-2.6626,-0.6382,-1.2002,-94.39,377.01,-184.27
1136,1577832629,-2.5845,-0.7065,-1.0630,-49.82,355.24,-150.18
1137,1577837628,-2.5488,-0.8057,-0.9014,-3.66,333.11,-120.49
1138,1577842627,-2.4971,-0.8760,-0.8071,38.29,311.95,-95.79
1139,1577847629,-2.3682,-0.9517,-0.7300,72.38,292.20,-76.16
1140,1577852629,-2.2642,-0.9644,-0.6118,96.46,273.17,-61.95
1141,1577857630,-2.2871,-0.9395,-0.5322,110.37,255.37,-53.29
1142,1577862629,-2.4395,-0.9771,-0.5225,114.88,239.21,-49.88
1143,1577867629,-2.6748,-1.0303,-0.5034,111.77,224.02,-50.49
1144,1577872629,-2.8608,-1.0801,-0.4131,103.17,209.27,-54.76
1145,1577877629,-2.8853,-1.1196,-0.3379,90.67,195.85,-62.13
1146,1577882629,-2.7974,-1.1870,-0.2866,75.55,183.05,-71.83
1147,1577887630,-2.6812,-1.2007,-0.1792,59.33,170.98,-83.35
1148,1577892629,-2.5156,-1.2041,-0.0713,43.72,159.09,-96.10
1149,1577897629,-2.3208,-1.1909,-0.0264,30.55,147.44,-109.09
1150,1577902630,-2.1431,-1.1738,-0.0112,21.16,136.16,-121.89
1151,1577907629,-1.9990,-1.1616,0.0117,16.28,124.33,-133.90
1152,1577912629,-1.8872,-1.1333,0.0337,16.28,112.50,-144.51
1153,1577917629,-1.7900,-1.1089,0.0425,20.91,100.73,-153.48
1154,1577922629,-1.6938,-1.0859,0.0459,29.76,89.70,-160.49
1155,1577927629,-1.5688,-1.0737,0.0503,41.89,78.41,-165.67
1156,1577932629,-1.3945,-1.0854,0.0347,56.28,67.01,-168.84
1157,1577937629,-1.2144,-1.0972,-0.0078,72.20,55.73,-170.43
1158,1577942629,-1.0903,-1.1040,-0.0420,87.99,44.45,-171.04
1159,1577947629,-1.0425,-1.1450,-0.0669,102.44,33.48,-170.98
1160,1577952629,-1.0703,-1.2026,-0.1221,114.02,22.74,-170.73
1161,1577957630,-1.1504,-1.2295,-0.1499,121.52,12.44,-170.49
1162,1577962629,-1.2139,-1.2432,-0.1787,125.06,2.62,-170.55
1163,1577967629,-1.2222,-1.2510,-0.1958,124.51,-6.59,-170.91
1164,1577972629,-1.1836,-1.2427,-0.2178,120.43,-15.24,-171.40
1165,1577977629,-1.1201,-1.2236,-0.2319,113.17,-23.35,-171.89
1166,1577982629,-1.0498,-1.1904,-0.2388,103.17,-31.22,-172.50
1167,1577987629,-0.9897,-1.1641,-0.2383,91.10,-38.29,-172.93
1168,1577992629,-0.9482,-1.1426,-0.2510,77.20,-45.00,-173.23
1169,1577997629,-0.9326,-1.1250,-0.2563,62.32,-50.85,-173.60
1170,1578002629,-0.9336,-1.0864,-0.2529,46.71,-55.85,-173.60
1171,1578007629,-0.9287,-1.0488,-0.2383,31.40,-60.00,-173.41
1172,1578012629,-0.9150,-1.0215,-0.2437,16.71,-63.48,-172.99
1173,1578017629,-0.9009,-0.9980,-0.2402,3.48,-66.04,-172.20
1174,1578022629,-0.8657,-0.9629,-0.2344,-7.99,-67.93,-170.85
1175,1578027629,-0.7983,-0.9263,-0.2397,-17.32,-69.39,-169.39
1176,1578032629,-0.7305,-0.8989,-0.2480,-24.94,-70.37,-167.68
1177,1578037629,-0.6875,-0.8892,-0.2451,-31.22,-70.73,-165.73
1178,1578042629,-0.6641,-0.8716,-0.2500,-36.34,-70.85,-163.48
1179,1578047629,-0.6636,-0.8530,-0.2505,-40.49,-70.49,-161.28
1180,1578052629,-0.6660,-0.8306,-0.2568,-43.96,-69.70,-159.15
1181,1578057629,-0.6699,-0.8223,-0.2632,-46.22,-68.66,-156.95
1182,1578062629,-0.6802,-0.8203,-0.2637,-47.62,-67.13,-154.63
1183,1578067629,-0.6831,-0.8037,-0.2695,-47.56,-65.49,-152.07
1184,1578072629,-0.6670,-0.7905,-0.2871,-46.65,-63.60,-149.45
1185,1578077629,-0.6440,-0.7710,-0.3018,-44.76,-61.52,-146.59
1186,1578082629,-0.6182,-0.7437,-0.3188,-42.44,-59.33,-143.54
1187,1578087629,-0.5913,-0.7202,-0.3394,-39.63,-57.38,-140.37
1188,1578092709,-0.5771,-0.7041,-0.3398,-36.46,-55.24,-137.20
1189,1578097629,-0.5674,-0.6987,-0.3423,-33.41,-53.05,-133.78
1190,1578102629,-0.5566,-0.6836,-0.3579,-30.24,-50.98,-130.24
1191,1578107629,-0.5410,-0.6733,-0.3726,-27.13,-48.35,-126.65
1192,1578112629,-0.5259,-0.6582,-0.3823,-24.27,-46.10,-123.05
1193,1578117629,-0.5181,-0.6377,-0.3804,-21.89,-43.54,-119.33
1194,1578122630,-0.5176,-0.6216,-0.3950,-19.88,-41.04,-115.79
1195,1578127629,-0.5132,-0.6221,-0.3950,-18.29,-38.48,-112.32
1196,1578132629,-0.4971,-0.6074,-0.3994,-17.07,-35.79,-108.72
1197,1578137629,-0.4756,-0.5962,-0.4131,-16.65,-33.17,-105.37
1198,1578142629,-0.4644,-0.5732,-0.4209,-16.59,-30.61,-102.20
1199,1578147629,-0.4619,-0.5664,-0.4316,-16.83,-28.60,-99.21
1200,1578152629,-0.4619,-0.5654,-0.4404,-17.13,-26.34,-96.22
1201,1578157629,-0.4585,-0.5718,-0.4673,-17.68,-24.21,-93.17
1202,1578162629,-0.4595,-0.5815,-0.4819,-17.87,-22.20,-90.12
1203,1578167629,-0.4604,-0.5830,-0.5010,-17.87,-20.30,-86.89
1204,1578172679,-0.4575,-0.5791,-0.5054,-17.68,-18.41,-83.78
1205,1578177628,-0.4414,-0.5801,-0.5181,-17.26,-16.59,-80.61
1206,1578182629,-0.4268,-0.5791,-0.5249,-16.95,-14.88,-77.38
1207,1578187630,-0.4146,-0.5830,-0.5244,-16.71,-13.05,-74.15
1208,1578192627,-0.3984,-0.5786,-0.5186,-16.71,-11.52,-70.79
1209,1578197632,-0.3916,-0.5928,-0.5225,-17.01,-9.76,-67.44
1210,1578202629,-0.4043,-0.5986,-0.5171,-17.62,-7.74,-63.90
1211,1578207628,-0.4150,-0.5942,-0.5068,-18.35,-5.91,-60.37
1212,1578212635,-0.4229,-0.5864,-0.5044,-18.90,-3.90,-56.77
1213,1578217629,-0.4092,-0.5859,-0.5078,-19.33,-1.77,-53.11
1214,1578222627,-0.3965,-0.5698,-0.5107,-19.39,0.49,-49.45
1215,1578227629,-0.3770,-0.5576,-0.5137,-19.15,2.80,-45.85
1216,1578232629,-0.3740,-0.5503,-0.5186,-18.84,5.06,-42.32
1217,1578237628,-0.3696,-0.5356,-0.5044,-18.78,7.20,-38.90
1218,1578242629,-0.3589,-0.5269,-0.5063,-19.15,9.39,-35.73
1219,1578247628,-0.3589,-0.5273,-0.5054,-20.30,12.01,-32.74
1220,1578252627,-0.3516,-0.5249,-0.4995,-22.44,14.39,-30.12
1221,1578257629,-0.3374,-0.5303,-0.4971,-25.55,16.89,-27.62
1222,1578262629,-0.3379,-0.5527,-0.4946,-29.51,19.39,-25.24
1223,1578267629,-0.3442,-0.5747,-0.4980,-34.15,21.95,-22.93
1224,1578272629,-0.3447,-0.5830,-0.4907,-39.21,24.45,-20.73
1225,1578277628,-0.3394,-0.5723,-0.4829,-43.96,26.95,-18.48
1226,1578282629,-0.3257,-0.5635,-0.4902,-48.17,29.57,-16.34
1227,1578287628,-0.3174,-0.5601,-0.4927,-51.59,31.77,-14.39
1228,1578292627,-0.3120,-0.5562,-0.5054,-53.78,33.66,-12.56
1229,1578297630,-0.3208,-0.5479,-0.5010,-54.63,35.43,-10.79
1230,1578302657,-0.3228,-0.5420,-0.5068,-54.09,36.83,-8.96
1231,1578307629,-0.3252,-0.5332,-0.5200,-52.38,37.87,-7.20
1232,1578312629,-0.3311,-0.5264,-0.5239,-49.76,38.96,-5.55
1233,1578317629,-0.3423,-0.5146,-0.5088,-46.34,40.06,-4.09
1234,1578322629,-0.3584,-0.5068,-0.4946,-42.56,41.10,-2.62
1235,1578327629,-0.3760,-0.5078,-0.4829,-38.48,42.38,-1.34
1236,1578332629,-0.3896,-0.5059,-0.4590,-34.27,43.84,0.06
1237,1578337629,-0.3901,-0.5034,-0.4478,-29.82,45.37,1.40
1238,1578342629,-0.3696,-0.5005,-0.4429,-24.94,47.01,2.93
1239,1578347629,-0.3311,-0.4902,-0.4419,-19.76,48.66,4.51
1240,1578352629,-0.2759,-0.4917,-0.4429,-14.15,50.12,6.22
1241,1578357629,-0.2305,-0.5024,-0.4473,-8.29,51.71,7.87
1242,1578362629,-0.1948,-0.5225,-0.4497,-2.44,52.93,9.82
1243,1578367708,-0.1763,-0.5361,-0.4648,3.23,54.09,11.89
1244,1578372629,-0.1616,-0.5425,-0.4673,8.60,55.30,13.84
1245,1578377735,-0.1553,-0.5542,-0.4648,13.54,56.28,15.67
1246,1578382627,-0.1533,-0.5586,-0.4731,17.87,57.44,17.38
1247,1578387631,-0.1509,-0.5718,-0.4839,21.52,58.35,18.84
1248,1578392629,-0.1562,-0.5771,-0.4810,24.33,59.33,20.30
1249,1578397629,-0.1655,-0.5815,-0.4810,26.59,60.24,21.59
1250,1578402629,-0.1699,-0.5918,-0.4829,28.17,61.04,22.80
1251,1578407629,-0.1816,-0.6050,-0.4761,29.21,61.89,23.84
1252,1578412629,-0.1987,-0.6221,-0.4717,29.70,62.68,25.06
1253,1578417629,-0.2080,-0.6255,-0.4590,29.88,63.35,26.28
1254,1578422629,-0.2129,-0.6323,-0.4478,30.00,64.27,27.38
1255,1578427629,-0.2124,-0.6382,-0.4443,30.00,64.94,28.72
1256,1578432629,-0.2046,-0.6333,-0.4268,30.37,65.73,29.88
1257,1578437629,-0.1987,-0.6255,-0.4272,31.16,66.28,31.04
1258,1578442629,-0.1929,-0.6177,-0.4258,32.20,66.65,32.13
1259,1578447629,-0.1978,-0.6104,-0.4189,33.66,66.77,33.17
1260,1578452629,-0.2100,-0.6035,-0.4194,35.55,66.83,34.21
1261,1578457629,-0.2285,-0.6030,-0.4258,37.74,66.77,35.24
1262,1578462686,-0.2373,-0.6011,-0.4390,40.24,66.71,36.28
1263,1578467629,-0.2329,-0.5967,-0.4434,42.74,66.40,37.32
1264,1578472629,-0.2266,-0.5869,-0.4585,45.12,65.91,37.99
1265,1578477629,-0.2285,-0.5859,-0.4639,46.95,65.43,38.78
1266,1578482629,-0.2446,-0.5884,-0.4673,48.17,64.88,39.63
1267,1578487629,-0.2622,-0.5913,-0.4663,48.60,64.51,40.18
1268,1578492629,-0.2778,-0.6016,-0.4624,48.23,64.27,40.85
1269,1578497629,-0.2749,-0.6045,-0.4590,47.44,64.33,41.65
1270,1578502629,-0.2524,-0.6040,-0.4521,45.98,64.45,42.50
1271,1578507630,-0.2129,-0.6011,-0.4580,44.70,64.63,43.60
1272,1578512629,-0.1719,-0.5972,-0.4561,43.29,65.06,44.70
1273,1578517629,-0.1421,-0.6069,-0.4697,42.20,65.98,46.04
1274,1578522629,-0.1245,-0.6230,-0.4795,41.59,66.95,47.62
1275,1578527629,-0.1104,-0.6489,-0.4854,41.83,67.99,49.70
1276,1578532629,-0.1196,-0.6665,-0.4980,42.80,69.33,52.44
1277,1578537629,-0.0913,-0.6821,-0.4907,44.63,70.91,54.70
1278,1578542629,-0.0972,-0.6831,-0.5137,47.74,73.17,57.44
1279,1578547629,-0.1108,-0.6982,-0.5195,51.10,75.79,60.24
1280,1578552629,-0.1123,-0.7251,-0.5264,54.45,78.41,63.17
1281,1578557629,-0.1045,-0.7441,-0.5000,57.74,80.91,66.16
1282,1578562629,-0.0918,-0.7383,-0.5225,60.91,84.33,68.96
1283,1578567629,-0.0908,-0.7344,-0.5293,63.60,86.40,71.40
1284,1578572629,-0.1182,-0.6904,-0.4639,65.49,89.70,71.28
1285,1578577629,-0.1138,-0.6758,-0.4614,63.84,92.80,75.30
1286,1578582628,-0.0850,-0.7202,-0.5283,61.40,96.46,77.07
1287,1578587630,-0.0669,-0.7568,-0.4937,58.60,99.63,78.66
1288,1578592629,-0.0581,-0.7744,-0.4556,55.79,102.80,79.82
1289,1578597629,-0.0635,-0.7871,-0.4478,52.44,109.70,80.55
1290,1578602629,-0.0571,-0.7803,-0.4834,50.00,110.37,81.16
1291,1578607629,-0.0459,-0.7861,-0.4673,46.52,114.09,81.28
1292,1578612629,-0.0513,-0.8164,-0.4941,44.15,114.45,81.46
1293,1578617629,-0.0498,-0.8516,-0.4858,41.52,117.13,81.65
1294,1578622630,-0.0576,-0.8901,-0.4629,38.96,120.55,81.71
1295,1578627629,-0.0796,-0.9233,-0.4541,36.89,123.48,81.71
1296,1578632629,-0.1128,-0.9526,-0.4438,35.24,127.56,81.59
1297,1578637629,-0.1357,-0.9746,-0.4341,34.76,130.00,81.40
1298,1578642629,-0.1392,-0.9829,-0.4224,35.06,133.05,81.28
1299,1578647629,-0.1299,-0.9849,-0.4189,36.89,136.95,80.79
1300,1578652629,-0.1196,-0.9932,-0.4136,39.70,139.45,80.37
1301,1578657629,-0.0894,-0.9922,-0.4077,45.79,144.02,79.70
1302,1578662629,-0.1064,-0.9858,-0.4419,49.88,145.37,78.66
1303,1578667629,-0.0806,-0.9922,-0.4004,56.95,144.70,77.20
1304,1578672629,-0.0732,-0.9883,-0.4067,64.27,147.56,75.67
1305,1578677629,-0.0537,-0.9917,-0.4307,72.56,150.49,73.84
1306,1578682629,-0.2090,-0.7476,0.0078,85.79,100.37,78.05
1307,1578687629,-0.1826,-0.5776,0.0317,72.07,152.20,70.00
1308,1578692629,-0.1567,-0.5225,-0.1777,63.96,156.52,68.78
1309,1578697629,-0.1279,-0.5864,-0.4863,57.01,156.10,68.23
1310,1578702855,-0.0986,-0.7520,-0.3418,50.55,155.55,67.80
1311,1578707629,-0.1108,-0.8853,-0.0840,44.27,156.71,67.99
1312,1578712630,-0.1260,-0.9116,-0.2124,38.41,157.38,68.29
1313,1578717629,-0.1406,-0.8535,-0.3604,33.17,156.59,68.84
1314,1578722629,-0.1592,-0.7725,-0.1895,28.17,156.77,69.45
1315,1578727629,-0.1782,-0.7354,-0.0649,23.35,157.99,70.18
1316,1578732629,-0.1694,-0.7529,-0.2173,18.96,158.41,70.98
1317,1578737629,-0.1431,-0.8037,-0.2812,15.30,157.93,72.01
1318,1578742629,-0.1328,-0.8564,-0.1104,12.68,158.60,73.23
1319,1578747629,-0.1172,-0.8765,-0.0610,11.83,159.63,74.39
1320,1578752629,-0.0854,-0.8691,-0.2095,13.05,160.00,75.98
1321,1578757629,-0.0552,-0.8569,-0.2422,16.77,159.76,77.62
1322,1578762629,-0.0317,-0.8506,-0.1309,22.87,160.30,79.82
1323,1578767632,-0.0029,-0.8848,-0.1660,31.16,160.85,82.38
1324,1578772629,0.0347,-0.9355,-0.3013,41.59,160.37,85.12
1325,1578777627,0.0708,-0.9619,-0.2944,53.17,159.76,87.80
1326,1578782629,0.0859,-0.9746,-0.2021,65.49,159.70,90.30
1327,1578787628,0.0913,-0.9727,-0.2515,77.38,159.57,92.62
1328,1578792632,0.0791,-0.9727,-0.3311,88.54,158.96,94.70
1329,1578797629,0.0537,-0.9766,-0.2734,97.68,158.60,96.28
1330,1578802629,0.0225,-0.9878,-0.1851,104.21,159.27,97.68
1331,1578807630,-0.0020,-1.0146,-0.2163,107.99,159.82,98.78
1332,1578812627,-0.0312,-1.0337,-0.2437,108.84,160.24,99.57
1333,1578817627,-0.0635,-1.0420,-0.1675,106.71,161.28,99.82
1334,1578822629,-0.0952,-1.0342,-0.1172,102.07,162.68,99.63
1335,1578827628,-0.1187,-1.0254,-0.1567,95.06,164.09,99.15
1336,1578832632,-0.1416,-1.0093,-0.1616,86.34,165.06,98.17
1337,1578837628,-0.1606,-0.9834,-0.1040,76.40,166.52,96.83
1338,1578842629,-0.1729,-0.9668,-0.0894,65.61,167.93,95.12
1339,1578847628,-0.1753,-0.9614,-0.1328,54.76,168.96,93.17
1340,1578852627,-0.1724,-0.9531,-0.1377,43.96,169.63,91.10
1341,1578857629,-0.1660,-0.9458,-0.0806,33.90,170.30,89.15
1342,1578862628,-0.1665,-0.9404,-0.0884,24.57,170.91,86.71
1343,1578867629,-0.1577,-0.9326,-0.1211,16.59,171.22,84.88
1344,1578872629,-0.1509,-0.9312,-0.0957,9.88,171.22,82.99
1345,1578877629,-0.1509,-0.9370,-0.0581,4.94,171.16,81.52
1346,1578882629,-0.1484,-0.9429,-0.0659,1.46,171.10,80.18
1347,1578887629,-0.1455,-0.9487,-0.0879,-0.49,170.61,79.09
1348,1578892629,-0.1484,-0.9604,-0.0693,-1.40,170.00,78.11
1349,1578897629,-0.1475,-0.9590,-0.0459,-1.52,169.51,77.32
1350,1578902627,-0.1523,-0.9668,-0.0615,-1.28,168.84,76.59
1351,1578907629,-0.1553,-0.9766,-0.0659,-0.79,167.93,75.79
1352,1578912627,-0.1748,-0.9946,-0.0303,-0.55,167.20,74.82
1353,1578917627,-0.1953,-1.0166,-0.0059,-0.37,166.83,73.96
1354,1578922629,-0.2222,-1.0376,-0.0142,-0.61,166.46,73.05
1355,1578927629,-0.2373,-1.0410,-0.0122,-0.61,166.28,72.26
1356,1578932629,-0.2393,-1.0361,0.0117,-0.24,166.40,71.22
1357,1578937629,-0.2334,-1.0381,0.0132,0.79,166.71,70.37
1358,1578942629,-0.2114,-1.0342,-0.0098,2.50,167.20,69.39
1359,1578947629,-0.1851,-1.0293,-0.0117,5.00,167.32,68.48
1360,1578952629,-0.1670,-1.0283,-0.0073,8.11,167.68,67.62
1361,1578957629,-0.1475,-1.0327,-0.0156,11.95,167.93,66.95
1362,1578962629,-0.1396,-1.0386,-0.0356,15.98,168.35,66.34
1363,1578967629,-0.1357,-1.0488,-0.0337,20.24,168.66,65.79
1364,1578972629,-0.1401,-1.0488,-0.0249,24.39,169.09,65.43
1365,1578977629,-0.1382,-1.0503,-0.0234,27.93,169.51,65.12
1366,1578982629,-0.1411,-1.0518,-0.0269,31.16,170.12,64.63
