# skilleye imu stream v1
# device=xiao_esp32c6 imu=mpu6050 addr=0x68
# rate_hz=200 accel_range_g=16 gyro_range_dps=2000 dlpf_hz=94
# units: accel in g, gyro in deg/s, t_us in microseconds since boot (monotonic)
# no shared clock with the camera -- tap the racket once before each take
# so both recordings share a spike to align on
seq,t_us,ax,ay,az,gx,gy,gz
0,1591617629,0.6680,-0.7793,0.3369,-20.98,3.54,13.41
1,1591622633,0.6709,-0.7812,0.3364,-22.01,3.35,12.50
2,1591627628,0.6694,-0.7856,0.3345,-23.35,3.35,11.65
3,1591632629,0.6724,-0.7842,0.3296,-24.82,3.60,10.85
4,1591637629,0.6841,-0.7837,0.3379,-25.61,3.72,10.18
5,1591642629,0.7002,-0.7720,0.3374,-25.49,3.78,9.76
6,1591647628,0.7119,-0.7681,0.3330,-24.57,3.90,9.51
7,1591652999,0.7314,-0.7710,0.3311,-22.20,3.96,9.45
8,1591657630,0.7383,-0.7681,0.3428,-20.12,4.02,9.57
9,1591662629,0.7373,-0.7705,0.3384,-17.93,4.21,9.82
10,1591667629,0.7476,-0.7729,0.3462,-16.22,4.27,10.18
11,1591672817,0.7744,-0.7788,0.3496,-15.24,4.39,10.55
12,1591677629,0.7861,-0.7783,0.3584,-14.63,4.57,10.98
13,1591682629,0.7861,-0.7861,0.3682,-14.45,4.45,11.40
14,1591687629,0.7852,-0.7998,0.3623,-14.27,4.39,11.65
15,1591692629,0.7930,-0.8066,0.3594,-14.27,4.33,11.59
16,1591697629,0.7876,-0.8140,0.3525,-14.63,4.27,11.28
17,1591702629,0.7622,-0.8242,0.3530,-15.24,4.39,10.73
18,1591707628,0.7422,-0.8315,0.3594,-16.10,4.45,9.82
19,1591712798,0.7334,-0.8325,0.3594,-16.89,4.51,8.66
20,1591717629,0.7251,-0.8301,0.3579,-17.26,4.63,7.26
21,1591722629,0.7163,-0.8276,0.3462,-17.13,4.63,5.73
22,1591727629,0.7095,-0.8223,0.3462,-16.46,4.70,4.09
23,1591732629,0.7061,-0.8145,0.3398,-15.24,4.70,2.38
24,1591737629,0.7012,-0.8062,0.3359,-13.84,4.63,0.61
25,1591742628,0.6982,-0.8086,0.3301,-12.44,4.70,-1.04
26,1591747629,0.6929,-0.7954,0.3364,-11.10,4.76,-2.62
27,1591752629,0.6987,-0.7900,0.3403,-9.76,4.88,-4.15
28,1591757629,0.6948,-0.7817,0.3320,-8.54,5.00,-5.61
29,1591762628,0.6958,-0.7720,0.3286,-7.32,5.12,-7.07
30,1591767630,0.7012,-0.7593,0.3271,-6.22,5.06,-8.35
31,1591772629,0.7046,-0.7539,0.3242,-5.18,5.24,-9.57
32,1591777629,0.7056,-0.7578,0.3281,-4.51,5.37,-10.73
33,1591782627,0.7046,-0.7490,0.3257,-4.21,5.55,-11.71
34,1591787629,0.7065,-0.7461,0.3267,-4.21,5.79,-12.68
35,1591792629,0.7090,-0.7417,0.3193,-4.45,5.91,-13.54
36,1591797629,0.7124,-0.7256,0.3198,-4.39,6.04,-14.45
37,1591802629,0.7109,-0.7183,0.3120,-4.39,6.16,-15.06
38,1591807629,0.7046,-0.7070,0.3125,-4.15,6.22,-15.61
39,1591812627,0.7036,-0.6924,0.3096,-3.78,6.40,-15.85
40,1591817629,0.6973,-0.6821,0.3096,-2.93,6.46,-16.10
41,1591822631,0.6958,-0.6641,0.3081,-1.89,6.46,-15.85
42,1591827628,0.7090,-0.6416,0.3101,-0.55,6.40,-15.43
43,1591832629,0.7188,-0.6206,0.3076,0.85,6.40,-14.82
44,1591837627,0.7207,-0.6094,0.3091,2.26,6.22,-14.02
45,1591843181,0.7207,-0.5898,0.3140,3.84,5.98,-12.80
46,1591847630,0.7256,-0.5762,0.3125,4.63,5.98,-11.89
47,1591852629,0.7285,-0.5664,0.3130,5.30,5.79,-10.61
48,1591857629,0.7246,-0.5576,0.3091,5.18,5.79,-9.39
49,1591862628,0.7217,-0.5464,0.3145,4.63,5.67,-7.99
50,1591867630,0.7354,-0.5527,0.3110,3.41,5.67,-6.46
51,1591872629,0.7446,-0.5547,0.3086,1.34,5.85,-4.94
52,1591877629,0.7339,-0.5615,0.3110,-1.59,5.98,-3.72
53,1591882628,0.7119,-0.5811,0.3096,-5.37,6.16,-2.74
54,1591887629,0.7139,-0.5845,0.2988,-9.51,6.40,-1.89
55,1591892629,0.7051,-0.5947,0.3018,-13.41,6.71,-1.22
56,1591897629,0.6919,-0.6060,0.2998,-16.95,6.95,-0.67
57,1591902628,0.6807,-0.6196,0.3071,-19.63,7.26,-0.30
58,1591907629,0.6675,-0.6396,0.3057,-21.16,7.38,-0.12
59,1591912948,0.6655,-0.6372,0.3140,-21.34,7.56,0.18
60,1591917629,0.6592,-0.6387,0.3066,-19.82,7.80,0.55
61,1591922629,0.6421,-0.6421,0.3145,-16.65,8.05,0.85
62,1591927629,0.6548,-0.6436,0.3232,-12.26,7.87,1.34
63,1591932627,0.6733,-0.6406,0.3237,-7.13,7.93,1.89
64,1591937629,0.6577,-0.6470,0.3203,-1.77,7.80,2.44
65,1591942627,0.6455,-0.6470,0.3164,2.93,7.62,2.99
66,1591947629,0.6392,-0.6392,0.3223,6.77,7.62,3.23
67,1591952631,0.6406,-0.6436,0.3291,9.09,7.50,3.41
68,1591957627,0.6421,-0.6479,0.3252,10.06,7.56,3.23
69,1591962629,0.6479,-0.6460,0.3252,9.70,7.44,3.05
70,1591967629,0.6421,-0.6479,0.3213,8.54,7.56,2.68
71,1591972629,0.6426,-0.6533,0.3193,6.71,7.44,2.13
72,1591977627,0.6436,-0.6523,0.3184,4.57,7.38,1.52
73,1591982629,0.6455,-0.6553,0.3193,1.95,7.38,0.91
74,1591987628,0.6592,-0.6675,0.3257,-0.67,7.38,0.18
75,1591992629,0.6602,-0.6660,0.3267,-3.23,7.44,-0.30
76,1591997629,0.6685,-0.6689,0.3320,-5.24,7.68,-0.67
77,1592002629,0.6689,-0.6660,0.3384,-6.22,7.80,-1.04
78,1592007628,0.6831,-0.6694,0.3452,-5.85,7.80,-1.04
79,1592012629,0.7002,-0.6616,0.3452,-3.72,8.05,-0.73
80,1592017627,0.7173,-0.6519,0.3467,0.18,8.17,-0.18
81,1592022629,0.7256,-0.6460,0.3467,5.06,7.99,0.85
82,1592027628,0.7344,-0.6426,0.3486,10.18,7.74,2.01
83,1592032629,0.7480,-0.6387,0.3569,14.82,7.62,3.35
84,1592037627,0.7651,-0.6406,0.3516,18.35,7.38,4.94
85,1592042629,0.7749,-0.6470,0.3462,20.43,7.13,6.46
86,1592047628,0.7593,-0.6509,0.3442,20.12,6.71,7.68
87,1592052629,0.7515,-0.6626,0.3438,17.32,6.40,8.72
88,1592057628,0.7559,-0.6777,0.3496,12.44,6.22,9.27
89,1592063169,0.7393,-0.6885,0.3398,4.70,5.85,9.63
90,1592067630,0.7251,-0.6997,0.3413,-1.10,5.79,9.51
91,1592072629,0.7188,-0.7075,0.3389,-8.11,5.43,9.51
92,1592077629,0.7090,-0.7173,0.3394,-13.90,5.06,9.21
93,1592082627,0.7090,-0.7246,0.3467,-17.93,4.63,9.09
94,1592087627,0.7046,-0.7310,0.3467,-19.94,3.90,9.02
95,1592092627,0.7085,-0.7373,0.3491,-20.00,3.41,9.21
96,1592097629,0.7031,-0.7456,0.3530,-17.99,2.87,9.63
97,1592102630,0.7075,-0.7461,0.3525,-14.45,2.07,10.06
98,1592107629,0.7090,-0.7544,0.3560,-10.12,1.28,10.61
99,1592112628,0.7119,-0.7651,0.3555,-5.55,0.61,10.98
100,1592117629,0.7012,-0.7754,0.3604,-1.52,-0.24,11.28
101,1592122630,0.6953,-0.7798,0.3633,1.46,-1.04,11.34
102,1592127630,0.6929,-0.7856,0.3569,2.93,-1.77,11.10
103,1592132628,0.6855,-0.7881,0.3555,2.99,-2.32,10.37
104,1592137630,0.6733,-0.7935,0.3560,1.77,-2.93,9.51
105,1592142629,0.6606,-0.7954,0.3486,-0.49,-3.35,8.23
106,1592147629,0.6558,-0.7988,0.3438,-3.96,-3.84,6.71
107,1592152628,0.6543,-0.8066,0.3472,-8.29,-4.15,5.24
108,1592157629,0.6533,-0.8027,0.3540,-12.99,-4.51,3.54
109,1592162629,0.6436,-0.8076,0.3452,-17.68,-4.63,1.89
110,1592167629,0.6465,-0.8032,0.3486,-21.77,-4.70,0.24
111,1592172628,0.6475,-0.8018,0.3433,-24.94,-4.70,-1.40
112,1592177630,0.6450,-0.7993,0.3423,-26.40,-4.82,-2.80
113,1592182629,0.6411,-0.7944,0.3438,-26.46,-4.88,-4.15
114,1592187630,0.6494,-0.7939,0.3428,-24.88,-4.94,-5.18
115,1592193134,0.6567,-0.7881,0.3364,-21.52,-4.82,-6.16
116,1592197631,0.6479,-0.7876,0.3345,-18.54,-4.88,-6.71
117,1592202629,0.6450,-0.7837,0.3438,-14.51,-5.00,-7.26
118,1592207630,0.6582,-0.7773,0.3408,-10.61,-4.82,-7.74
119,1592212628,0.6553,-0.7734,0.3369,-7.01,-4.63,-8.23
120,1592217629,0.6411,-0.7734,0.3374,-3.78,-4.45,-8.84
121,1592222629,0.6367,-0.7729,0.3384,-1.10,-4.15,-9.15
122,1592227629,0.6499,-0.7603,0.3281,1.22,-3.84,-9.63
123,1592232628,0.6523,-0.7559,0.3267,3.54,-3.48,-10.00
124,1592237629,0.6465,-0.7437,0.3267,5.67,-2.99,-10.30
125,1592242629,0.6465,-0.7393,0.3237,7.38,-2.62,-10.49
126,1592247629,0.6523,-0.7266,0.3213,8.90,-2.32,-10.61
127,1592252628,0.6636,-0.7100,0.3218,10.24,-1.95,-10.55
128,1592257629,0.6538,-0.7026,0.3145,11.34,-1.71,-10.37
129,1592262629,0.6460,-0.6938,0.3149,11.83,-1.16,-10.12
130,1592267629,0.6465,-0.6846,0.3193,12.01,-1.04,-9.63
131,1592272628,0.6528,-0.6743,0.3115,12.13,-0.67,-9.21
132,1592277630,0.6465,-0.6621,0.3159,12.62,-0.49,-8.60
133,1592282627,0.6411,-0.6514,0.3120,13.72,-0.43,-7.99
134,1592287629,0.6509,-0.6343,0.3057,15.37,-0.67,-7.13
135,1592292631,0.6577,-0.6328,0.3032,17.50,-0.91,-6.22
136,1592297628,0.6597,-0.6289,0.2983,19.33,-1.10,-5.12
137,1592302629,0.6572,-0.6226,0.3022,20.61,-1.40,-4.15
138,1592307627,0.6567,-0.6221,0.3057,20.61,-1.77,-3.05
139,1592312629,0.6582,-0.6255,0.3042,19.51,-2.07,-2.32
140,1592317628,0.6519,-0.6333,0.2959,17.44,-2.38,-1.46
141,1592322629,0.6460,-0.6318,0.2939,14.88,-2.32,-0.79
142,1592327627,0.6519,-0.6392,0.2959,12.01,-2.56,-0.06
143,1592332629,0.6616,-0.6411,0.2920,9.45,-2.87,0.55
144,1592337629,0.6670,-0.6523,0.3047,7.56,-2.93,1.34
145,1592342629,0.6714,-0.6553,0.2969,6.28,-3.17,2.20
146,1592347627,0.6699,-0.6621,0.2969,5.49,-3.29,2.99
147,1592352629,0.6685,-0.6650,0.2993,5.67,-3.48,3.84
148,1592357628,0.6714,-0.6655,0.2935,6.52,-3.60,4.51
149,1592362798,0.6743,-0.6670,0.2959,7.68,-4.09,5.18
150,1592367629,0.6787,-0.6685,0.3037,9.09,-4.15,5.91
151,1592372629,0.6802,-0.6670,0.2979,10.43,-4.51,6.46
152,1592377629,0.6924,-0.6729,0.3013,11.83,-4.63,7.20
153,1592382627,0.7065,-0.6777,0.2983,13.60,-4.76,8.05
154,1592387629,0.7178,-0.6870,0.3047,15.49,-5.00,8.78
155,1592392631,0.7246,-0.6934,0.3008,17.20,-5.12,9.76
156,1592397628,0.7358,-0.6958,0.2905,18.84,-5.18,10.55
157,1592402629,0.7412,-0.7021,0.2964,19.94,-5.30,11.28
158,1592407629,0.7417,-0.7119,0.2900,20.18,-5.24,11.77
159,1592412629,0.7388,-0.7246,0.2910,19.70,-5.24,12.07
160,1592417629,0.7446,-0.7393,0.2959,18.60,-5.24,12.32
161,1592422629,0.7520,-0.7476,0.2979,17.01,-5.00,12.26
162,1592427627,0.7583,-0.7568,0.2925,15.18,-4.94,12.07
163,1592432629,0.7544,-0.7637,0.2988,13.35,-5.00,11.65
164,1592437628,0.7495,-0.7720,0.3013,11.46,-5.18,11.10
165,1592442629,0.7524,-0.7861,0.3008,9.82,-5.00,10.37
166,1592447627,0.7583,-0.7886,0.3120,8.84,-5.12,9.63
167,1592452629,0.7588,-0.7954,0.3027,8.60,-5.12,8.78
168,1592457628,0.7593,-0.8008,0.3022,8.78,-5.49,7.80
169,1592462629,0.7681,-0.8052,0.3057,9.27,-5.61,6.83
170,1592467628,0.7739,-0.8081,0.3076,9.76,-5.85,5.91
171,1592472954,0.7798,-0.8081,0.3110,10.24,-5.98,5.00
172,1592477630,0.7822,-0.8101,0.3027,10.85,-6.22,3.96
173,1592482629,0.7935,-0.8101,0.2959,11.46,-6.59,2.99
174,1592487629,0.8086,-0.8110,0.2871,11.89,-6.89,2.07
175,1592492628,0.8242,-0.8120,0.2832,11.89,-7.32,1.34
176,1592497630,0.8350,-0.8193,0.2842,11.16,-7.68,0.73
177,1592502629,0.8496,-0.8242,0.2798,9.94,-8.05,0.12
178,1592507629,0.8594,-0.8218,0.2700,8.05,-8.48,-0.43
179,1592512628,0.8628,-0.8135,0.2832,5.73,-9.02,-0.91
180,1592517630,0.8735,-0.8198,0.2817,2.93,-9.33,-1.34
181,1592522629,0.8726,-0.8179,0.2764,-0.37,-10.00,-2.01
182,1592527629,0.8501,-0.8203,0.2754,-4.15,-10.24,-2.74
183,1592532628,0.8242,-0.8242,0.2817,-8.17,-10.61,-3.60
184,1592537629,0.8149,-0.8257,0.2856,-11.95,-10.79,-4.57
185,1592542629,0.8320,-0.8203,0.2847,-15.18,-11.04,-5.67
186,1592547629,0.8252,-0.8237,0.2896,-17.74,-11.40,-7.01
187,1592552628,0.7974,-0.8369,0.2949,-20.18,-11.59,-8.54
188,1592557629,0.7822,-0.8491,0.2949,-22.20,-11.65,-10.30
189,1592562629,0.7773,-0.8594,0.2998,-23.72,-11.65,-12.20
190,1592567629,0.7778,-0.8726,0.3091,-24.21,-11.46,-14.45
191,1592572631,0.7612,-0.8862,0.3149,-24.02,-11.34,-16.65
192,1592577629,0.7617,-0.8984,0.3237,-22.80,-11.16,-18.84
193,1592582629,0.7720,-0.9175,0.3208,-21.04,-10.85,-21.04
194,1592587630,0.7847,-0.9287,0.3330,-19.09,-10.30,-23.35
195,1592592628,0.7959,-0.9399,0.3291,-17.13,-9.82,-25.67
196,1592597629,0.7866,-0.9458,0.3340,-15.37,-9.45,-28.29
197,1592602629,0.7827,-0.9604,0.3325,-14.09,-8.84,-30.85
198,1592607630,0.7793,-0.9722,0.3296,-13.11,-8.23,-33.60
199,1592612628,0.7832,-0.9795,0.3301,-12.20,-7.56,-36.52
200,1592617630,0.7881,-0.9839,0.3354,-11.16,-6.89,-39.39
201,1592622629,0.7891,-0.9854,0.3433,-9.45,-6.10,-42.20
202,1592627629,0.7876,-0.9834,0.3374,-6.65,-5.49,-44.82
203,1592632628,0.8057,-0.9800,0.3447,-2.62,-4.76,-47.32
204,1592637629,0.8223,-0.9810,0.3413,2.62,-4.51,-49.70
205,1592642629,0.8359,-0.9810,0.3442,8.54,-4.02,-51.89
206,1592647630,0.8379,-0.9907,0.3555,14.63,-3.72,-54.27
207,1592652628,0.8286,-0.9932,0.3643,19.94,-3.48,-56.83
208,1592657629,0.8262,-1.0034,0.3755,24.15,-3.23,-59.39
209,1592662629,0.8286,-1.0039,0.3784,27.38,-2.74,-62.50
210,1592667630,0.8188,-1.0093,0.3853,30.06,-2.26,-65.73
211,1592672814,0.8047,-1.0146,0.3955,32.62,-1.83,-69.09
212,1592677629,0.7900,-1.0132,0.3955,35.43,-1.34,-72.80
213,1592682629,0.7812,-1.0044,0.3940,39.02,-1.28,-76.52
214,1592687630,0.7822,-1.0010,0.3989,43.35,-0.98,-80.43
215,1592692628,0.7769,-0.9976,0.4082,48.11,-1.10,-84.33
216,1592697629,0.7632,-0.9893,0.4194,53.11,-0.98,-88.29
217,1592702629,0.7627,-0.9858,0.4282,58.66,-1.16,-92.07
218,1592707630,0.7876,-0.9844,0.4287,64.63,-1.52,-96.04
219,1592712628,0.7920,-0.9790,0.4380,70.06,-1.77,-100.00
220,1592717629,0.7715,-0.9790,0.4434,74.94,-2.38,-103.78
221,1592722629,0.7578,-0.9619,0.4585,79.45,-2.99,-107.93
222,1592727629,0.7627,-0.9443,0.4565,83.78,-3.41,-111.71
223,1592732628,0.7700,-0.9287,0.4658,88.23,-4.09,-115.49
224,1592737629,0.7715,-0.8970,0.4575,92.56,-5.00,-119.15
225,1592742629,0.7671,-0.8643,0.4536,96.95,-6.16,-122.50
226,1592747630,0.7637,-0.8359,0.4507,101.04,-7.32,-125.73
227,1592752628,0.7734,-0.8018,0.4551,104.33,-8.60,-128.66
228,1592757629,0.7769,-0.7622,0.4517,106.83,-9.94,-131.46
229,1592762629,0.7739,-0.7163,0.4473,108.29,-11.28,-134.15
230,1592767629,0.7744,-0.6841,0.4365,108.66,-12.68,-136.65
231,1592772628,0.7842,-0.6562,0.4248,107.74,-14.39,-139.02
232,1592777662,0.7773,-0.6128,0.4185,105.12,-15.91,-141.28
233,1592782629,0.7749,-0.5786,0.4170,100.73,-17.32,-143.60
234,1592787630,0.7637,-0.5425,0.4126,94.94,-18.60,-145.73
235,1592792628,0.7524,-0.5137,0.4155,87.93,-19.70,-147.68
236,1592797629,0.7544,-0.4863,0.4067,80.61,-20.73,-149.45
237,1592802629,0.7632,-0.4536,0.4048,73.54,-21.34,-151.10
238,1592807629,0.7642,-0.4307,0.4033,66.83,-22.07,-152.38
239,1592812628,0.7671,-0.4038,0.4043,61.28,-22.62,-153.29
240,1592817630,0.7637,-0.3706,0.3960,57.50,-23.11,-153.96
241,1592822629,0.7598,-0.3384,0.3931,55.43,-23.48,-154.21
242,1592827629,0.7544,-0.3018,0.3755,55.12,-23.78,-153.96
243,1592832627,0.7705,-0.2622,0.3711,56.04,-24.09,-153.35
244,1592837628,0.7910,-0.2373,0.3667,57.50,-24.21,-152.32
245,1592842782,0.7930,-0.2031,0.3564,58.72,-24.51,-150.91
246,1592847629,0.7827,-0.1704,0.3550,59.33,-24.57,-149.27
247,1592852628,0.7773,-0.1382,0.3418,59.02,-24.63,-147.32
248,1592857629,0.7769,-0.0981,0.3267,57.93,-24.82,-145.24
249,1592862630,0.7695,-0.0596,0.3076,55.85,-24.51,-143.05
250,1592867629,0.7607,-0.0430,0.3003,52.56,-24.27,-140.79
251,1592872628,0.7554,-0.0293,0.3052,48.23,-23.72,-138.05
252,1592877808,0.7480,0.0073,0.3076,43.41,-22.99,-135.30
253,1592882629,0.7334,0.0396,0.2900,38.90,-22.26,-132.32
254,1592887630,0.7290,0.0645,0.2832,35.43,-21.34,-129.02
255,1592892628,0.7329,0.0845,0.2749,33.05,-20.61,-125.49
256,1592897629,0.7437,0.1055,0.2632,31.83,-19.94,-121.52
257,1592902629,0.7383,0.1221,0.2666,32.07,-19.33,-117.38
258,1592907630,0.7119,0.1499,0.2661,33.60,-18.84,-113.05
259,1592912628,0.6851,0.1655,0.2642,36.16,-18.11,-108.54
260,1592917629,0.6748,0.1841,0.2588,39.82,-17.62,-103.96
261,1592922631,0.6821,0.2070,0.2637,44.70,-16.89,-98.29
262,1592927630,0.6782,0.2222,0.2588,47.74,-16.52,-94.63
263,1592932629,0.6675,0.2441,0.2578,50.79,-15.91,-89.88
264,1592937629,0.6528,0.2515,0.2534,52.56,-15.30,-85.30
265,1592942628,0.6597,0.2598,0.2539,52.26,-14.51,-80.85
266,1592947630,0.6641,0.2759,0.2598,49.57,-13.66,-76.59
267,1592952629,0.6367,0.2939,0.2720,44.57,-12.80,-72.50
268,1592957629,0.6113,0.3125,0.2734,38.17,-11.65,-68.78
269,1592962628,0.5986,0.3257,0.2695,30.98,-10.67,-65.00
270,1592967629,0.5972,0.3262,0.2637,24.02,-9.51,-61.10
271,1592972629,0.6001,0.3267,0.2656,18.17,-8.78,-57.13
272,1592977629,0.5840,0.3428,0.2817,13.90,-7.80,-52.87
273,1592982706,0.5527,0.3564,0.2822,11.83,-6.77,-48.66
274,1592987629,0.5332,0.3706,0.2856,12.50,-5.91,-44.15
275,1592992629,0.5234,0.3945,0.2739,15.73,-5.12,-39.33
276,1592997630,0.5107,0.4175,0.2588,20.98,-4.57,-34.33
277,1593002628,0.5005,0.4375,0.2593,27.13,-4.15,-29.02
278,1593007629,0.4834,0.4600,0.2578,32.93,-3.72,-23.60
279,1593012629,0.4639,0.4878,0.2432,37.74,-3.60,-17.93
280,1593017655,0.4526,0.5215,0.2305,41.16,-3.54,-12.13
281,1593022629,0.4561,0.5444,0.2212,42.74,-3.54,-6.16
282,1593027629,0.4556,0.5620,0.2202,42.26,-3.41,0.06
283,1593032629,0.4492,0.5757,0.2168,39.63,-3.35,6.40
284,1593037628,0.4438,0.5908,0.2104,35.30,-3.29,13.05
285,1593042629,0.4453,0.6113,0.2070,29.57,-3.05,19.82
286,1593047627,0.4429,0.6221,0.1914,22.80,-2.80,27.07
287,1593052629,0.4468,0.6333,0.2021,15.73,-2.56,34.51
288,1593057628,0.4624,0.6382,0.1992,8.41,-2.20,42.50
289,1593062629,0.4683,0.6372,0.1987,1.40,-1.77,50.85
290,1593067627,0.4727,0.6323,0.1963,-5.00,-1.52,59.76
291,1593072629,0.5073,0.6411,0.1987,-9.94,-1.40,69.15
292,1593077628,0.5308,0.6318,0.2017,-13.35,-1.28,78.90
293,1593082630,0.5518,0.6211,0.1919,-15.49,-1.22,89.09
294,1593087629,0.5679,0.6108,0.2002,-16.40,-1.40,99.82
295,1593092629,0.5732,0.6128,0.2158,-15.91,-1.40,110.79
296,1593097628,0.5835,0.6011,0.2183,-14.39,-1.59,122.01
297,1593102629,0.5947,0.5864,0.2158,-12.20,-1.59,133.41
298,1593107631,0.6104,0.5645,0.2183,-9.33,-1.40,144.94
299,1593112627,0.6362,0.5386,0.2139,-6.04,-1.34,156.77
300,1593117627,0.6763,0.5020,0.1973,-2.93,-1.28,168.60
301,1593122629,0.7441,0.4639,0.1812,-0.61,-1.34,180.61
302,1593127627,0.7935,0.4307,0.1704,-0.49,-1.65,192.68
303,1593132629,0.8057,0.3936,0.1724,-3.66,-1.83,204.27
304,1593137627,0.8286,0.3384,0.1699,-10.30,-1.83,215.37
305,1593142630,0.8696,0.2798,0.1675,-21.28,-2.01,225.91
306,1593147629,0.8662,0.2319,0.1616,-36.28,-2.13,235.61
307,1593152629,0.8486,0.1724,0.1572,-54.76,-2.44,244.33
308,1593157628,0.8291,0.0981,0.1577,-75.98,-3.05,252.13
309,1593162629,0.8247,0.0220,0.1621,-99.63,-3.90,259.15
310,1593167629,0.8247,-0.0659,0.1875,-124.33,-5.49,265.43
311,1593172629,0.8320,-0.1597,0.2139,-148.84,-7.68,271.10
312,1593177628,0.8320,-0.2598,0.2314,-171.22,-10.49,276.34
313,1593182630,0.8325,-0.3589,0.2559,-189.88,-14.09,280.85
314,1593187628,0.8433,-0.4736,0.2769,-203.29,-18.41,284.70
315,1593192628,0.8877,-0.5952,0.2930,-211.34,-23.29,287.74
316,1593197632,0.9072,-0.6860,0.3052,-214.27,-28.60,289.51
317,1593202627,0.8315,-0.7700,0.3086,-211.89,-33.96,289.21
318,1593207828,0.7207,-0.8989,0.3125,-204.09,-38.90,286.65
319,1593212631,0.7720,-3.7686,0.5005,-191.16,-44.02,279.39
320,1593217628,1.4678,-8.8359,-0.0039,-129.51,-44.45,134.76
321,1593222629,1.6353,-5.7676,-0.4346,-139.45,-44.45,40.06
322,1593227627,1.1499,-4.4526,0.0435,-146.16,-42.20,-0.91
323,1593232629,0.9170,-2.6182,0.1821,-123.72,-38.84,-19.33
324,1593237629,0.8545,-0.9893,0.1904,-87.32,-38.17,-29.27
325,1593242630,1.0073,-0.0273,0.3789,-48.78,-38.60,-37.56
326,1593247628,1.0425,-0.1274,0.4336,-12.93,-36.28,-44.57
327,1593252629,0.9248,-0.9048,0.2993,18.29,-35.98,-50.00
328,1593257629,0.8301,-1.7134,0.2866,44.70,-35.85,-54.21
329,1593262629,0.8242,-2.0483,0.4219,66.46,-34.82,-59.02
330,1593267628,0.8574,-1.7920,0.4287,83.84,-32.68,-65.12
331,1593273049,0.8608,-1.2202,0.3159,96.40,-31.71,-72.99
332,1593277631,0.8159,-0.7173,0.2935,103.78,-31.16,-82.20
333,1593282628,0.7886,-0.5347,0.3501,105.73,-29.76,-91.34
334,1593287629,0.7891,-0.6865,0.3096,102.87,-28.17,-99.82
335,1593292629,0.8330,-0.9634,0.2432,95.67,-27.26,-107.44
336,1593297629,0.8682,-1.1436,0.2622,85.98,-26.04,-114.27
337,1593302628,0.8794,-1.0908,0.3149,75.00,-24.39,-120.67
338,1593307629,0.8721,-0.8589,0.2783,64.76,-22.74,-127.20
339,1593312627,0.8574,-0.5908,0.2358,56.52,-21.28,-133.11
340,1593317631,0.8491,-0.4272,0.2544,50.91,-19.88,-138.29
341,1593322628,0.8423,-0.4028,0.2539,47.93,-18.11,-142.62
342,1593327629,0.8242,-0.4761,0.2012,47.20,-16.89,-145.98
343,1593332630,0.8096,-0.5508,0.1831,48.17,-15.79,-148.41
344,1593337629,0.7954,-0.5527,0.2148,50.61,-14.57,-150.24
345,1593342629,0.7920,-0.4541,0.2090,53.66,-12.99,-151.52
346,1593347631,0.7715,-0.3057,0.1641,56.83,-12.01,-152.50
347,1593352628,0.7563,-0.1870,0.1401,59.63,-10.85,-153.11
348,1593357629,0.7485,-0.1318,0.1450,61.52,-9.39,-153.29
349,1593362627,0.7456,-0.1377,0.1274,62.01,-8.05,-152.93
350,1593367629,0.7251,-0.1533,0.1021,61.34,-6.71,-152.01
351,1593372629,0.7144,-0.1338,0.0957,59.57,-5.06,-150.61
352,1593377629,0.7085,-0.0728,0.1069,57.13,-2.99,-148.78
353,1593382629,0.7007,0.0112,0.0815,54.45,-0.85,-146.59
354,1593387628,0.6821,0.1021,0.0337,51.16,1.22,-144.09
355,1593392629,0.6665,0.1812,0.0244,47.99,3.54,-140.98
356,1593397629,0.6592,0.2373,0.0117,44.57,5.91,-137.32
357,1593402629,0.6499,0.2896,-0.0054,40.98,8.48,-133.05
358,1593407627,0.6299,0.3306,-0.0073,36.89,11.65,-127.93
359,1593412629,0.6240,0.3940,-0.0269,32.68,14.94,-122.32
360,1593417629,0.6177,0.4839,-0.0278,28.35,18.54,-115.67
361,1593422630,0.6138,0.5605,-0.0518,24.15,22.20,-108.17
362,1593427628,0.6074,0.6245,-0.0552,20.06,26.16,-99.45
363,1593432629,0.5869,0.6968,-0.0723,15.79,30.12,-89.63
364,1593437674,0.5977,0.7715,-0.0664,12.20,34.21,-78.66
365,1593442629,0.5918,0.8140,-0.0811,8.78,38.41,-66.46
366,1593447628,0.6021,0.8745,-0.1040,5.43,42.26,-52.74
367,1593452760,0.6079,0.9399,-0.0781,2.01,46.22,-37.80
368,1593457629,0.6045,1.0039,-0.0454,-1.04,50.43,-21.52
369,1593462628,0.5938,1.0542,-0.0518,-2.56,54.21,-4.02
370,1593467629,0.5850,1.0894,-0.0620,-2.01,57.56,14.88
371,1593472628,0.6025,1.1353,-0.0410,1.52,60.49,34.88
372,1593477629,0.6079,1.1611,-0.0293,7.62,63.35,55.73
373,1593482627,0.5942,1.1685,-0.0444,15.37,65.49,77.56
374,1593487629,0.5723,1.1685,-0.0342,23.72,67.20,99.70
375,1593492628,0.5918,1.1714,0.0244,31.71,68.96,122.26
376,1593497629,0.5835,1.1460,0.0420,39.15,70.43,144.88
377,1593502627,0.5825,1.1118,0.0537,45.43,71.52,167.74
378,1593507629,0.5806,1.0542,0.1001,50.49,72.26,190.49
379,1593512628,0.5762,0.9907,0.1333,54.45,72.99,212.99
380,1593517629,0.5576,0.9175,0.1416,56.83,73.11,235.00
381,1593522627,0.5420,0.8130,0.1489,57.07,72.74,256.46
382,1593527629,0.5483,0.6958,0.1792,55.00,72.07,276.95
383,1593532629,0.5420,0.5864,0.1978,50.37,70.98,296.10
384,1593537629,0.5190,0.4688,0.2090,42.20,69.27,313.60
385,1593542628,0.4878,0.3364,0.2354,30.30,67.20,329.33
386,1593547629,0.4609,0.2119,0.2773,14.15,64.70,342.74
387,1593552627,0.4536,0.0757,0.3091,-6.10,61.77,354.02
388,1593557629,0.4551,-0.0518,0.3374,-29.63,58.05,362.87
389,1593562628,0.4492,-0.1602,0.3745,-56.04,53.84,369.45
390,1593567629,1.8179,-6.4819,1.9800,-80.43,45.49,363.72
391,1593572627,1.0776,-10.4463,0.1230,76.04,47.13,142.56
392,1593577629,1.0620,-1.1558,-0.3354,96.89,48.29,17.26
393,1593582628,0.7837,0.2939,1.4102,76.65,18.17,-3.90
394,1593587629,0.6592,-0.0703,1.4731,28.78,8.35,-6.28
395,1593592628,1.2080,-0.8828,0.0259,-28.41,14.02,-3.78
396,1593597712,1.1519,-1.1733,-0.0796,-76.34,2.74,-1.40
397,1593602627,0.9888,-0.9443,0.9360,-114.88,3.35,0.43
398,1593607627,0.8433,-0.3706,0.7373,-144.15,5.67,0.91
399,1593612629,0.8027,0.0586,-0.1221,-164.82,-0.24,0.18
400,1593617629,0.7559,0.1064,0.1895,-178.29,-4.94,-0.43
401,1593622628,0.7271,-0.2090,0.8228,-185.37,-3.96,0.00
402,1593627631,0.7793,-0.6392,0.4121,-186.77,-4.39,1.28
403,1593632627,0.8203,-0.8809,-0.0620,-183.35,-9.21,2.87
404,1593637629,0.7896,-0.8555,0.4150,-176.10,-11.46,4.27
405,1593642628,0.7383,-0.6606,0.7676,-165.98,-10.06,5.30
406,1593647629,0.7363,-0.4658,0.3140,-153.23,-10.67,5.91
407,1593652627,0.7524,-0.3730,0.0908,-138.17,-13.78,6.59
408,1593657631,0.7373,-0.4336,0.4980,-121.40,-13.84,7.68
409,1593662628,0.7314,-0.5928,0.5825,-103.11,-12.13,9.27
410,1593667629,0.7568,-0.7217,0.1909,-83.96,-12.62,11.04
411,1593672627,0.7852,-0.7358,0.1680,-64.57,-13.90,12.80
412,1593677631,0.7949,-0.6533,0.4946,-46.22,-12.44,14.51
413,1593682627,0.8149,-0.5469,0.4541,-29.88,-10.18,15.73
414,1593687627,0.8169,-0.4863,0.1626,-16.34,-9.94,16.65
415,1593692631,0.7954,-0.4956,0.2466,-6.10,-9.02,17.07
416,1593697628,0.7720,-0.5542,0.4648,0.85,-6.04,17.44
417,1593702629,0.7739,-0.6138,0.3320,5.06,-3.11,17.56
418,1593707628,0.7842,-0.6313,0.1318,7.13,-1.83,17.38
419,1593712629,0.7715,-0.5986,0.2358,7.20,0.18,17.01
420,1593717629,0.7593,-0.5405,0.3501,5.43,3.11,16.28
421,1593722629,0.7720,-0.5059,0.1982,1.65,5.37,15.61
422,1593727630,0.7856,-0.5059,0.1099,-4.09,6.83,14.76
423,1593732629,0.7847,-0.5229,0.2520,-11.34,9.02,14.02
424,1593737630,0.7812,-0.5566,0.2925,-19.45,11.77,13.60
425,1593742631,0.7930,-0.5713,0.1680,-27.32,13.60,13.11
426,1593747629,0.8101,-0.5688,0.1348,-34.33,15.00,12.68
427,1593752627,0.8076,-0.5601,0.2510,-39.88,16.95,12.20
428,1593757628,0.7920,-0.5532,0.2393,-43.66,18.84,11.77
429,1593762629,0.7915,-0.5596,0.1426,-45.55,19.76,11.40
430,1593767627,0.7852,-0.5684,0.1650,-45.49,20.55,11.04
431,1593772629,0.7778,-0.5840,0.2358,-43.72,21.71,10.73
432,1593777629,0.7729,-0.6035,0.2017,-40.49,22.74,10.43
433,1593782629,0.7891,-0.6064,0.1172,-36.46,22.99,10.18
434,1593787628,0.7852,-0.6016,0.1436,-32.38,23.11,9.82
435,1593792629,0.7778,-0.5801,0.1826,-29.15,23.66,9.33
436,1593797629,0.7866,-0.5698,0.1353,-27.68,24.02,8.60
437,1593802629,0.7959,-0.5786,0.0874,-29.02,24.33,7.87
438,1593807628,0.7837,-0.5884,0.1357,-33.60,24.76,7.13
439,1593812629,0.7622,-0.5967,0.1626,-40.61,25.98,6.34
440,1593817629,0.7437,-0.6113,0.1323,-49.15,26.95,5.61
441,1593822629,0.7378,-0.6216,0.1089,-58.54,27.74,5.24
442,1593827628,0.7495,-0.6216,0.1421,-67.07,28.84,5.00
443,1593832630,0.7808,-0.6001,0.1426,-73.90,29.94,4.88
444,1593837629,0.8047,-0.5977,0.0894,-78.78,30.49,4.82
445,1593842629,0.8032,-0.6084,0.0806,-81.59,30.49,4.82
446,1593847628,0.7837,-0.6187,0.1021,-82.62,30.49,4.94
447,1593852629,0.7607,-0.6333,0.0947,-82.62,30.55,4.94
448,1593857629,0.7559,-0.6626,0.0610,-81.89,30.00,5.24
449,1593862629,0.7646,-0.6587,0.0547,-81.16,29.33,5.43
450,1593867628,0.7773,-0.6680,0.0986,-80.98,28.66,5.37
451,1593872629,0.7871,-0.6943,0.0933,-81.04,28.17,5.55
452,1593877629,0.7910,-0.6934,0.0508,-81.22,27.62,5.61
453,1593882629,0.8018,-0.6855,0.0464,-81.16,27.07,5.61
454,1593887628,0.8052,-0.6963,0.0581,-80.98,26.83,5.55
455,1593892629,0.8115,-0.7075,0.0449,-80.79,26.46,5.30
456,1593897629,0.8149,-0.7046,0.0190,-80.91,26.16,5.18
457,1593902629,0.8174,-0.6968,0.0122,-81.22,25.79,4.63
458,1593907628,0.8125,-0.7065,0.0029,-82.20,25.85,3.66
459,1593912629,0.8101,-0.7290,-0.0303,-84.33,25.85,2.93
460,1593917630,0.8076,-0.7446,-0.0596,-87.56,25.49,1.89
461,1593922627,0.7964,-0.7554,-0.0645,-91.83,25.43,0.98
462,1593927629,0.8115,-0.7563,-0.0684,-97.01,25.30,-0.18
463,1593932629,0.8472,-0.7520,-0.0947,-102.80,25.12,-1.40
464,1593937631,0.8740,-0.7656,-0.1147,-109.70,24.76,-2.68
465,1593942628,0.8857,-0.7969,-0.1074,-117.62,24.51,-3.90
466,1593947652,0.8843,-0.8169,-0.1089,-126.22,24.02,-5.00
467,1593952627,0.8901,-0.8271,-0.1230,-135.18,23.72,-6.04
468,1593957629,0.9062,-0.8442,-0.1289,-144.02,23.29,-6.95
469,1593962628,0.9199,-0.8569,-0.1089,-152.38,23.05,-7.74
470,1593967629,0.9321,-0.8618,-0.1094,-159.21,22.80,-8.60
471,1593972627,0.9341,-0.8560,-0.1182,-164.21,23.17,-9.57
472,1593977630,0.9126,-0.8657,-0.1338,-167.13,22.80,-10.85
473,1593982629,0.8872,-0.8901,-0.1333,-168.05,22.68,-11.83
474,1593987628,0.8740,-0.9019,-0.1533,-167.68,22.93,-12.80
475,1593992629,0.8838,-0.8945,-0.1572,-166.22,23.11,-13.90
476,1593997628,0.9072,-0.8809,-0.1577,-164.27,23.41,-15.18
477,1594002629,0.9111,-0.8770,-0.1670,-162.68,24.09,-16.77
478,1594007629,0.8872,-0.8726,-0.1787,-162.32,24.76,-18.35
479,1594012629,0.8970,-0.8979,-0.1948,-164.15,25.24,-20.00
480,1594017628,0.9062,-0.9258,-0.2261,-167.74,25.85,-21.59
481,1594022627,0.9282,-0.9126,-0.2520,-172.01,26.16,-23.11
482,1594027629,0.9277,-0.9077,-0.2676,-177.07,26.52,-24.94
483,1594032680,0.9062,-0.9414,-0.2744,-183.29,26.65,-26.89
484,1594037627,0.8882,-0.9727,-0.2715,-190.43,26.83,-28.84
485,1594042628,0.8984,-0.9814,-0.2837,-197.87,27.26,-30.61
486,1594047629,0.9258,-0.9600,-0.2817,-204.39,27.20,-32.74
487,1594052629,0.9438,-0.9644,-0.2969,-209.51,27.44,-35.12
488,1594057628,0.9429,-0.9863,-0.2979,-213.17,27.80,-37.38
489,1594062853,0.9243,-0.9932,-0.3052,-215.12,28.05,-39.51
490,1594067631,0.9219,-0.9878,-0.3125,-215.43,28.54,-41.65
491,1594072628,0.9194,-0.9907,-0.3247,-214.39,29.09,-43.90
492,1594077629,0.9229,-0.9883,-0.3267,-212.44,29.57,-46.10
493,1594082629,0.9292,-0.9854,-0.3286,-210.12,30.12,-48.35
494,1594087629,0.9341,-0.9829,-0.3335,-207.93,30.79,-50.61
495,1594092740,0.9390,-0.9858,-0.3398,-206.59,31.59,-52.80
496,1594097627,0.9473,-0.9722,-0.3506,-206.16,32.38,-54.94
497,1594102627,0.9585,-0.9644,-0.3535,-206.95,33.48,-57.26
498,1594107627,0.9722,-0.9458,-0.3608,-209.21,34.33,-59.63
499,1594112627,0.9512,-0.9473,-0.3706,-212.99,35.49,-62.07
500,1594117627,0.9263,-0.9517,-0.3667,-217.56,36.77,-64.33
501,1594122627,0.9106,-0.9424,-0.3696,-222.13,37.93,-66.46
502,1594127629,0.9214,-0.9224,-0.3770,-225.98,39.21,-68.48
503,1594132631,0.9438,-0.9116,-0.3726,-228.35,40.55,-70.18
504,1594137628,0.9580,-0.9023,-0.3779,-229.27,41.89,-71.52
505,1594142629,0.9893,-0.8916,-0.3784,-228.60,43.11,-72.74
506,1594147630,1.0098,-0.8735,-0.3789,-227.01,44.39,-73.72
507,1594152627,1.0176,-0.8613,-0.3726,-225.06,45.67,-74.70
508,1594157629,1.0117,-0.8540,-0.3809,-222.99,46.83,-75.37
509,1594162628,1.0073,-0.8477,-0.3794,-221.59,48.17,-75.98
510,1594167629,1.0029,-0.8438,-0.3755,-221.04,49.33,-76.59
511,1594172627,1.0029,-0.8481,-0.3818,-221.40,50.73,-77.07
512,1594177629,1.0020,-0.8521,-0.3828,-222.32,52.07,-77.38
513,1594182628,1.0151,-0.8257,-0.3950,-223.78,53.11,-77.74
514,1594187629,1.0200,-0.8130,-0.3901,-225.73,54.21,-78.35
515,1594192627,0.9961,-0.8159,-0.3740,-228.17,55.30,-78.96
516,1594197633,0.9824,-0.8115,-0.3501,-231.04,56.52,-79.63
517,1594202628,0.9917,-0.7852,-0.3423,-233.48,57.93,-80.55
518,1594207629,1.0059,-0.7642,-0.3408,-235.12,59.27,-81.52
519,1594212627,1.0029,-0.7603,-0.3384,-236.10,60.67,-82.68
520,1594217627,0.9780,-0.7656,-0.3481,-236.34,61.83,-83.66
521,1594222631,0.9634,-0.7720,-0.3530,-236.34,62.80,-84.45
522,1594227629,0.9595,-0.7471,-0.3579,-235.85,63.54,-85.30
523,1594233012,0.9629,-0.7148,-0.3447,-235.55,64.39,-86.34
524,1594237629,0.9595,-0.6929,-0.3384,-235.61,65.06,-87.74
525,1594242753,0.9468,-0.6821,-0.3369,-236.52,65.73,-89.09
526,1594247629,0.9414,-0.6714,-0.3330,-238.11,66.28,-90.37
527,1594252628,0.9434,-0.6572,-0.3252,-240.61,66.95,-91.71
528,1594257629,0.9443,-0.6460,-0.3164,-243.23,67.80,-92.68
529,1594262627,0.9326,-0.6484,-0.3169,-246.22,68.23,-93.60
530,1594267629,0.9092,-0.6646,-0.3086,-248.60,69.21,-94.02
531,1594272628,0.9268,-0.6626,-0.3008,-249.94,69.94,-94.09
532,1594277629,0.9707,-0.6401,-0.2866,-250.06,70.61,-94.02
533,1594282629,1.0010,-0.6309,-0.2661,-249.63,71.34,-94.02
534,1594287629,0.9941,-0.6431,-0.2476,-248.96,71.77,-93.90
535,1594292628,0.9668,-0.6533,-0.2349,-248.23,72.56,-93.60
536,1594297631,0.9600,-0.6445,-0.2344,-247.38,72.93,-93.29
537,1594302627,0.9629,-0.6255,-0.2290,-245.98,73.35,-93.05
538,1594307629,0.9775,-0.6113,-0.2144,-244.39,73.54,-93.11
539,1594312628,0.9746,-0.6040,-0.2114,-242.93,73.84,-93.17
540,1594317629,0.9668,-0.6025,-0.2129,-241.89,74.15,-93.35
541,1594322627,0.9526,-0.6094,-0.2046,-241.22,74.57,-93.54
542,1594327629,0.9526,-0.5996,-0.1938,-240.98,74.94,-93.54
543,1594332628,0.9478,-0.5830,-0.1860,-241.16,75.67,-93.72
544,1594337632,0.9375,-0.5684,-0.1802,-241.77,76.40,-94.02
545,1594342630,0.9136,-0.5659,-0.1699,-243.11,77.44,-94.51
546,1594347630,0.8843,-0.5728,-0.1660,-245.24,78.72,-94.88
547,1594352629,0.8701,-0.5605,-0.1475,-247.74,80.12,-95.12
548,1594357627,0.8594,-0.5415,-0.1465,-249.70,81.52,-95.61
549,1594362627,0.8438,-0.5327,-0.1362,-250.73,82.68,-96.04
550,1594367627,0.8315,-0.5156,-0.1357,-250.61,85.06,-96.65
551,1594372627,0.8271,-0.4956,-0.1270,-249.39,86.40,-97.38
552,1594377631,0.8291,-0.4746,-0.1191,-247.38,85.98,-98.05
553,1594382628,0.8149,-0.4731,-0.1152,-245.24,88.23,-98.72
554,1594387629,0.7876,-0.4692,-0.1030,-243.41,89.27,-99.45
555,1594392629,0.7632,-0.4629,-0.0767,-242.01,91.04,-100.12
556,1594397627,0.7471,-0.4478,-0.0630,-241.04,92.74,-100.61
557,1594402629,0.7544,-0.4531,-0.0454,-240.49,94.88,-101.04
558,1594407628,0.7549,-0.4692,-0.0322,-239.94,96.89,-101.10
559,1594412633,0.7568,-0.4678,-0.0195,-238.84,98.90,-100.91
560,1594417629,0.7627,-0.4453,-0.0117,-236.52,100.98,-100.55
561,1594422670,0.7622,-0.4453,0.0020,-232.93,102.99,-100.06
562,1594427630,0.7710,-0.4531,0.0269,-228.60,104.70,-99.63
563,1594432627,0.7979,-0.4482,0.0576,-223.60,106.52,-98.72
564,1594437629,0.8208,-0.4292,0.0889,-218.41,108.29,-98.23
565,1594442629,0.8315,-0.4043,0.1157,-212.93,109.82,-97.80
566,1594447628,0.8237,-0.4009,0.1328,-207.56,111.52,-97.44
567,1594452629,0.8198,-0.3921,0.1445,-202.80,113.05,-97.26
568,1594457628,0.8101,-0.3774,0.1597,-199.09,114.57,-97.26
569,1594462629,0.8018,-0.3643,0.1646,-196.40,116.04,-97.26
570,1594467629,0.7852,-0.3569,0.1733,-194.82,117.50,-97.56
571,1594472629,0.7495,-0.3477,0.1763,-194.57,118.90,-97.93
572,1594477629,0.7085,-0.3301,0.1929,-195.30,120.49,-98.54
573,1594482629,0.6714,-0.3105,0.2202,-196.59,122.20,-99.27
574,1594487628,0.6616,-0.3032,0.2437,-198.35,123.84,-100.06
575,1594492629,0.6694,-0.2949,0.2617,-200.43,125.79,-100.79
576,1594497628,0.6821,-0.2881,0.2866,-202.44,127.62,-101.40
577,1594502629,0.6904,-0.2866,0.3008,-204.15,129.21,-101.89
578,1594507629,0.6938,-0.2861,0.3228,-205.43,130.67,-102.44
579,1594512629,0.7080,-0.2861,0.3462,-206.40,132.01,-102.56
580,1594517628,0.7344,-0.2925,0.3696,-207.20,133.17,-102.74
581,1594522629,0.7563,-0.3071,0.3916,-207.80,134.21,-102.68
582,1594527629,0.7578,-0.3169,0.4121,-208.29,135.30,-102.44
583,1594532629,0.7451,-0.3247,0.4370,-208.23,136.10,-102.07
584,1594537628,0.7275,-0.3218,0.4507,-207.07,136.95,-101.77
585,1594542629,0.7207,-0.3013,0.4648,-204.45,137.68,-101.28
586,1594547691,0.7192,-0.2856,0.4868,-200.18,138.05,-101.10
587,1594552629,0.7104,-0.2837,0.5093,-194.51,138.41,-101.04
588,1594557630,0.6909,-0.2749,0.5200,-187.13,138.78,-100.91
589,1594562821,0.6782,-0.2573,0.5381,-178.41,138.78,-100.98
590,1594567629,0.6772,-0.2280,0.5547,-168.72,138.84,-101.40
591,1594572628,0.6685,-0.2266,0.5820,-159.09,138.78,-102.07
592,1594577629,0.6592,-0.2305,0.6016,-150.43,138.60,-102.93
593,1594582627,0.6494,-0.2227,0.6240,-143.54,138.35,-104.02
594,1594587629,0.6201,-0.2095,0.6421,-138.84,138.41,-105.24
595,1594592628,0.5879,-0.1987,0.6660,-136.28,138.11,-106.77
596,1594597629,0.5718,-0.1875,0.6953,-136.22,137.99,-108.48
597,1594602627,0.5684,-0.1870,0.7334,-138.29,137.80,-110.37
598,1594607629,0.5674,-0.1968,0.7534,-142.62,137.38,-112.20
599,1594612628,0.5737,-0.2148,0.7671,-148.48,137.13,-114.02
600,1594617630,0.5649,-0.2183,0.7896,-155.24,136.34,-115.67
601,1594622627,0.5386,-0.2129,0.8091,-162.38,135.79,-117.44
602,1594627627,0.5273,-0.2104,0.8228,-169.15,134.82,-119.21
603,1594632629,0.5239,-0.2202,0.8345,-175.18,133.72,-121.10
604,1594637628,0.5269,-0.2354,0.8428,-180.30,132.68,-122.87
605,1594642629,0.5244,-0.2383,0.8589,-184.02,131.40,-124.21
606,1594647628,0.5020,-0.2417,0.8770,-185.98,130.24,-125.67
607,1594652629,0.4707,-0.2412,0.8960,-185.49,129.21,-126.77
608,1594657629,0.4448,-0.2207,0.9121,-181.89,128.23,-127.62
609,1594662629,0.4614,-0.1953,0.9180,-174.94,127.38,-128.54
610,1594667628,0.4834,-0.1812,0.9248,-167.20,126.28,-129.15
611,1594672629,0.5000,-0.1802,0.9370,-153.35,124.94,-129.82
612,1594677629,0.5044,-0.1841,0.9512,-143.48,123.96,-130.18
613,1594682627,0.5205,-0.1812,0.9712,-129.45,122.07,-130.73
614,1594687629,0.5156,-0.1816,0.9907,-119.33,120.73,-131.34
615,1594692628,0.5010,-0.1851,1.0063,-111.77,119.15,-132.13
616,1594697629,0.4731,-0.1880,1.0088,-108.11,117.87,-133.05
617,1594702627,0.4414,-0.1914,1.0244,-106.65,115.67,-134.51
618,1594707629,0.4233,-0.1958,1.0376,-108.17,114.33,-135.73
619,1594712628,0.3945,-0.2056,1.0513,-113.78,112.44,-137.50
620,1594717632,0.3774,-0.2100,1.0669,-120.18,110.98,-138.90
621,1594722627,0.3784,-0.2095,1.0649,-125.79,110.06,-139.82
622,1594727627,0.3667,-0.1968,1.0771,-132.44,108.90,-140.85
623,1594732627,0.3589,-0.1768,1.1055,-137.62,108.23,-141.65
624,1594737627,0.3521,-0.1753,1.1211,-141.10,107.74,-142.20
625,1594742627,0.3354,-0.1675,1.1357,-142.68,107.62,-142.32
626,1594747631,0.3110,-0.1650,1.1357,-141.65,107.93,-142.01
627,1594752628,0.2915,-0.1660,1.1514,-139.39,108.23,-141.52
628,1594757629,0.2710,-0.1626,1.1660,-133.66,109.09,-140.37
629,1594762629,0.2573,-0.1523,1.1685,-128.96,109.76,-139.45
630,1594767629,0.2241,-0.1597,1.1641,-122.20,110.55,-138.11
631,1594772628,0.1978,-0.1680,1.1597,-115.06,111.04,-136.71
632,1594777629,0.1978,-0.1685,1.1748,-107.68,111.40,-135.00
633,1594782627,0.2227,-0.1611,1.1816,-100.30,111.40,-133.35
634,1594787629,0.2363,-0.1504,1.1992,-93.11,111.16,-131.71
635,1594792629,0.2427,-0.1509,1.2144,-87.07,110.67,-130.00
636,1594797628,0.2451,-0.1577,1.2217,-82.32,110.06,-128.05
637,1594802629,0.2729,-0.1611,1.2344,-79.15,109.51,-126.10
638,1594807627,0.2939,-0.1650,1.2417,-77.32,108.84,-123.90
639,1594812629,0.2827,-0.1499,1.2632,-76.65,108.35,-121.59
640,1594817630,0.2568,-0.1245,1.2607,-76.77,108.05,-119.39
641,1594822629,0.2432,-0.1011,1.2646,-77.56,107.74,-117.20
642,1594827628,0.2383,-0.0942,1.2656,-78.60,107.74,-115.06
643,1594832629,0.2202,-0.0947,1.2495,-80.37,107.74,-112.93
644,1594837629,0.2017,-0.1040,1.2344,-82.26,107.93,-110.73
645,1594842675,0.2080,-0.1060,1.2300,-84.21,108.17,-107.74
646,1594847630,0.2173,-0.1157,1.2290,-85.49,108.41,-105.85
647,1594852629,0.2070,-0.1216,1.2373,-86.46,108.66,-103.17
648,1594857629,0.1694,-0.0996,1.2358,-86.34,108.84,-100.79
649,1594862629,0.1338,-0.0767,1.2417,-84.76,109.15,-98.54
650,1594867628,0.1216,-0.0664,1.2354,-81.77,109.15,-96.34
651,1594872629,0.1094,-0.0679,1.2246,-77.74,108.96,-94.27
652,1594877629,0.0864,-0.0732,1.2104,-73.11,108.54,-92.26
653,1594882629,0.0684,-0.0801,1.1929,-68.17,107.93,-90.06
654,1594887628,0.0757,-0.0864,1.1641,-63.41,107.01,-87.99
655,1594892629,0.0703,-0.1016,1.1519,-58.35,106.04,-85.37
656,1594897629,0.0581,-0.1035,1.1519,-55.61,105.30,-83.72
657,1594902628,0.0503,-0.0845,1.1577,-52.93,104.63,-81.59
658,1594907629,0.0518,-0.0737,1.1558,-51.04,103.90,-79.63
659,1594912627,0.0684,-0.0698,1.1470,-49.94,103.17,-77.62
660,1594917629,0.0615,-0.0640,1.1387,-49.51,102.74,-75.73
661,1594922628,0.0518,-0.0674,1.1255,-50.24,102.32,-73.72
662,1594927646,0.0439,-0.0620,1.1348,-51.65,102.20,-71.71
663,1594932627,0.0234,-0.0620,1.1230,-53.60,102.38,-69.82
664,1594937629,0.0146,-0.0786,1.1162,-56.04,102.80,-67.93
665,1594942628,0.0142,-0.0977,1.1226,-58.66,103.29,-66.04
666,1594947629,-0.0264,-0.0972,1.1445,-61.40,103.84,-64.45
667,1594952627,-0.0903,-0.0933,1.1426,-63.90,104.70,-63.17
668,1594957631,-0.1484,-0.1006,1.1289,-65.91,105.18,-62.20
669,1594962628,-0.1807,-0.1050,1.1162,-67.32,105.91,-61.22
670,1594967631,-0.1860,-0.1255,1.1084,-67.93,106.46,-60.24
671,1594972627,-0.1997,-0.1465,1.1040,-67.93,106.83,-59.39
672,1594977629,-0.2139,-0.1582,1.1021,-67.26,107.38,-58.11
673,1594982628,-0.2036,-0.1606,1.1050,-65.61,108.17,-56.59
674,1594987629,-0.1831,-0.1548,1.0898,-62.87,108.90,-55.00
675,1594993087,-0.1602,-0.1777,1.0703,-59.15,109.76,-52.74
676,1594997630,-0.1440,-0.1880,1.0518,-56.83,110.00,-50.91
677,1595002628,-0.1230,-0.1860,1.0562,-54.39,110.43,-48.54
678,1595007629,-0.1221,-0.1870,1.0815,-53.05,110.73,-46.10
679,1595012628,-0.1533,-0.1777,1.1079,-52.87,111.40,-43.66
680,1595017627,-0.2236,-0.1660,1.1328,-53.60,111.95,-41.34
681,1595022631,-0.3081,-0.1436,1.1206,-55.12,112.44,-39.39
682,1595027628,-0.3672,-0.1191,1.1060,-57.26,112.68,-37.68
683,1595032627,-0.3931,-0.0894,1.0806,-59.57,112.44,-36.83
684,1595037631,-0.4136,-0.0620,1.0620,-60.61,111.71,-36.40
685,1595042629,-0.5322,-0.2500,1.1406,-62.62,111.28,-35.43
686,1595047629,-0.4478,-0.2646,1.1553,-67.07,111.10,-33.35
687,1595052627,-0.2788,-0.2212,1.1392,-72.01,111.04,-31.59
688,1595057629,-0.2559,-0.2300,1.1128,-77.26,110.55,-30.06
689,1595062628,-0.3052,-0.2783,1.1309,-82.74,109.88,-28.48
690,1595067629,-0.3213,-0.2910,1.1289,-88.60,109.27,-26.46
691,1595072627,-0.2773,-0.2676,1.1196,-93.66,108.35,-24.57
692,1595077629,-0.2476,-0.2710,1.1274,-97.68,107.74,-22.56
693,1595082628,-0.2573,-0.3022,1.1426,-100.43,107.32,-20.30
694,1595087629,-0.2798,-0.3247,1.1294,-101.83,107.13,-17.68
695,1595093006,-0.3271,-0.3242,1.1011,-101.89,106.65,-14.02
696,1595097629,-0.3618,-0.3330,1.1021,-101.16,106.28,-11.77
697,1595102627,-0.4072,-0.3350,1.1079,-99.76,106.34,-8.78
698,1595107629,-0.4399,-0.3345,1.0957,-97.99,106.34,-5.67
699,1595112629,-0.4707,-0.3418,1.0605,-96.28,106.10,-2.74
700,1595117630,-0.4868,-0.3232,1.0386,-94.70,105.98,0.37
701,1595122629,-0.5273,-0.3730,1.0688,-93.54,106.10,3.23
702,1595127628,-0.5527,-0.4102,1.0225,-93.90,106.34,6.71
703,1595132708,-0.5166,-0.3984,1.0161,-95.18,106.34,10.24
704,1595137629,-0.5117,-0.3745,1.0317,-96.95,106.77,13.78
705,1595142629,-0.5342,-0.3809,1.0088,-98.84,107.38,17.56
706,1595147628,-0.5459,-0.3945,0.9644,-100.98,107.62,21.52
707,1595152629,-0.5474,-0.3955,0.9663,-103.35,107.93,25.85
708,1595157629,-0.5591,-0.3916,1.0112,-106.65,108.48,30.61
709,1595162629,-0.5776,-0.4004,1.0010,-109.57,109.27,35.79
710,1595167629,-0.6108,-0.4038,0.9678,-111.95,110.06,41.04
711,1595172628,-0.6704,-0.3975,0.9634,-113.66,111.16,46.46
712,1595177629,-0.7300,-0.3916,0.9629,-114.51,112.44,51.95
713,1595182627,-0.7686,-0.3906,0.9404,-115.24,113.78,57.32
714,1595187629,-0.7964,-0.3975,0.9150,-115.55,115.24,62.87
715,1595192627,-0.8359,-0.3960,0.9170,-115.55,117.07,68.60
716,1595197633,-0.8643,-0.3931,0.9048,-115.43,118.78,74.21
717,1595202627,-0.8906,-0.3936,0.8643,-115.73,120.61,80.12
718,1595207629,-0.8906,-0.4062,0.8398,-116.89,122.32,85.73
719,1595212628,-0.8809,-0.4121,0.8462,-119.27,124.15,92.62
720,1595217629,-0.8638,-0.4141,0.8511,-122.74,126.04,99.57
721,1595222627,-0.8618,-0.4048,0.8433,-127.38,128.17,106.71
722,1595227629,-0.8647,-0.4106,0.8286,-133.23,130.18,114.02
723,1595232628,-0.8721,-0.4282,0.8081,-141.65,132.44,123.35
724,1595237629,-0.8784,-0.4365,0.8052,-147.87,133.78,129.82
725,1595242627,-0.8984,-0.4497,0.7803,-156.16,135.49,138.35
726,1595247629,-0.9277,-0.4565,0.7861,-164.02,137.13,147.13
727,1595252628,-0.9688,-0.4546,0.7842,-170.91,138.96,156.16
728,1595257629,-1.0078,-0.4663,0.7656,-176.46,140.73,165.30
729,1595262627,-1.0566,-0.4741,0.7378,-180.73,142.13,174.70
730,1595267629,-1.1016,-0.4878,0.7192,-183.78,143.35,184.39
731,1595272628,-1.1489,-0.5142,0.6919,-185.85,144.39,194.27
732,1595277629,-1.1948,-0.5352,0.6816,-187.74,145.37,204.45
733,1595282627,-1.2422,-0.5537,0.6709,-189.27,146.28,214.94
734,1595287629,-1.2925,-0.5649,0.6616,-190.67,147.20,225.49
735,1595292628,-1.3394,-0.5801,0.6533,-192.13,148.23,236.28
736,1595297676,-1.3984,-0.6021,0.6260,-193.90,149.21,247.32
737,1595302627,-1.4521,-0.6265,0.5840,-195.67,150.18,258.66
738,1595307629,-1.5215,-0.6460,0.5601,-197.87,150.98,270.49
739,1595312628,-1.5869,-0.6660,0.5400,-200.30,151.89,282.44
740,1595317629,-1.6455,-0.6909,0.5127,-202.68,152.93,294.88
741,1595322627,-1.6934,-0.7202,0.4834,-205.18,153.90,307.93
742,1595327629,-1.7441,-0.7490,0.4692,-207.74,155.18,321.52
743,1595332628,-1.7949,-0.7817,0.4517,-210.00,156.83,335.79
744,1595337630,-1.8613,-0.8350,0.4263,-212.32,158.41,350.73
745,1595342627,-1.9473,-0.8945,0.4087,-214.15,160.12,366.83
746,1595347629,-2.0586,-0.9565,0.3984,-215.55,161.95,383.84
747,1595352627,-2.2246,-1.0439,0.3735,-216.46,164.09,402.01
748,1595357628,-2.4443,-1.1270,0.3325,-216.83,166.22,421.40
749,1595362629,-2.7329,-1.1958,0.3086,-216.65,168.05,441.65
750,1595367629,-3.0732,-1.2568,0.2866,-216.28,169.88,462.68
751,1595372629,-3.4932,-1.2993,0.2607,-215.24,171.34,483.90
752,1595377630,-3.9883,-1.3345,0.2012,-213.48,172.32,505.49
753,1595382629,-4.6436,-1.3945,0.1099,-210.30,172.44,526.83
754,1595387628,-5.4839,-1.4868,-0.0059,-205.85,171.10,548.23
755,1595392629,-6.4160,-1.5537,-0.0801,-200.30,168.05,569.51
756,1595397629,-7.2842,-1.5400,-0.0825,-194.76,163.54,590.30
757,1595402627,-8.1001,-1.5273,-0.0137,-190.98,157.99,609.82
758,1595407627,-8.7837,-1.5586,0.1235,-191.28,150.06,629.09
759,1595412627,-9.1177,-1.6265,0.3076,-197.62,139.70,649.51
760,1595417627,-9.1899,-1.8184,0.4600,-210.49,125.30,673.84
761,1595422630,-9.1138,-2.0742,0.5918,-229.57,104.09,704.70
762,1595427628,-8.8101,-2.2305,0.7607,-252.68,74.33,743.35
763,1595432629,-8.5000,-2.3618,0.9951,-277.32,34.39,789.51
764,1595438253,-8.3628,-2.5757,1.3555,-305.55,-27.20,854.27
765,1595443168,-8.4243,-2.7314,1.6802,-324.21,-89.39,915.18
766,1595447629,-8.5771,-2.8521,1.8984,-332.01,-146.10,967.44
767,1595452627,-9.0405,-3.0459,2.0317,-328.66,-225.00,1035.18
768,1595457627,-9.6577,-3.2944,2.0278,-309.09,-311.28,1104.51
769,1595462629,-10.3853,-3.6313,2.0513,-275.67,-401.22,1174.21
770,1595467629,-11.2563,-3.9800,2.0190,-232.20,-491.22,1243.23
771,1595472628,-12.2241,-4.3560,1.8984,-184.82,-577.13,1310.30
772,1595477627,-13.5000,-4.7412,1.6260,-138.72,-655.98,1374.51
773,1595482627,-14.7368,-5.0703,1.4199,-94.51,-729.27,1435.06
774,1595487627,-15.8848,-5.4243,1.0586,-55.37,-795.37,1491.28
775,1595492627,-15.9966,-5.9927,0.6758,-27.62,-852.87,1544.45
776,1595497627,-16.0000,-6.5840,0.1460,-15.43,-904.39,1593.11
777,1595502627,-16.0000,-7.1606,-0.4248,-20.91,-954.63,1633.96
778,1595507628,-16.0000,-7.7085,-1.0444,-45.30,-1002.50,1660.98
779,1595512627,-16.0000,-8.3252,-1.6152,-89.88,-1049.45,1667.99
780,1595517631,-16.0000,-8.7910,-2.2876,-150.18,-1092.44,1646.65
781,1595522627,-16.0000,-9.8105,-3.2090,-219.15,-1137.26,1594.45
782,1595527627,-16.0000,-10.7114,-4.1128,-283.29,-1185.30,1516.04
783,1595532627,-16.0000,-11.3647,-5.3965,-338.60,-1234.63,1413.17
784,1595537628,-16.0000,-11.6514,-6.5107,-396.10,-1286.40,1291.16
785,1595542652,-16.0000,-11.6895,-7.0249,-471.95,-1348.90,1156.22
786,1595547627,-16.0000,-11.3667,-7.6533,-588.96,-1420.37,1009.76
787,1595552632,-16.0000,-10.7349,-8.2603,-762.62,-1497.01,848.11
788,1595557628,-16.0000,-10.0347,-8.6484,-984.39,-1584.09,667.01
789,1595562627,-16.0000,-8.9805,-8.6050,-1227.50,-1678.48,461.04
790,1595568076,-15.2554,-7.3936,-8.4038,-1517.44,-1763.41,172.44
791,1595572630,-14.0879,-6.2266,-8.3340,-1692.87,-1788.54,-41.89
792,1595577627,-12.9019,-5.0356,-7.8521,-1875.79,-1775.43,-323.23
793,1595582627,-11.9634,-4.0947,-7.2490,-1998.05,-1705.55,-601.46
794,1595587627,-11.1475,-3.6128,-6.6348,-1998.05,-1573.41,-857.99
795,1595592627,-10.7524,-2.9897,-5.6802,-1998.05,-1386.10,-1078.23
796,1595597629,-9.4976,-2.5791,-4.9634,-1998.05,-1154.82,-1249.94
797,1595602629,-9.1226,-2.5635,-4.2705,-1998.05,-894.45,-1363.66
798,1595607632,-9.2393,-2.8604,-3.9048,-1998.05,-631.04,-1409.51
799,1595612628,-9.3906,-3.4189,-3.3804,-1767.68,-391.04,-1388.54
800,1595617629,-9.2798,-3.7192,-2.6372,-1416.77,-192.87,-1312.74
801,1595622627,-9.1191,-3.3921,-1.8521,-1022.20,-41.52,-1204.94
802,1595627629,-9.3164,-2.7480,-0.9883,-639.15,69.82,-1086.77
803,1595632628,-9.3164,-1.9258,-0.1958,-311.22,153.11,-973.72
804,1595637629,-8.8906,-1.0874,0.2476,-58.11,219.57,-874.70
805,1595642796,-8.4839,-0.3682,0.2070,122.20,273.17,-792.93
806,1595647627,-8.1519,0.1445,-0.0259,237.26,315.79,-726.95
807,1595652630,-7.7969,0.5210,-0.2432,297.07,350.06,-674.27
808,1595657629,-7.4189,0.7412,-0.5112,316.16,377.01,-632.01
809,1595662628,-6.9575,0.8115,-0.8306,307.56,397.01,-596.52
810,1595667629,-6.6309,0.8486,-1.2036,281.52,410.43,-566.34
811,1595672627,-6.6147,0.9146,-1.5649,246.16,417.44,-540.73
812,1595677629,-6.6841,0.8921,-1.8716,204.39,418.17,-518.78
813,1595682628,-6.6216,0.7290,-2.0522,156.28,414.09,-498.72
814,1595687629,-6.2720,0.5122,-2.0435,102.80,406.34,-478.23
815,1595692629,-5.7144,0.2925,-1.9282,48.05,396.34,-455.67
816,1595697629,-5.1279,0.0317,-1.7944,-3.05,384.63,-430.73
817,1595702629,-4.6270,-0.2192,-1.6396,-45.00,371.65,-403.23
818,1595707629,-4.1099,-0.4072,-1.4727,-72.68,357.26,-373.72
819,1595712628,-3.6621,-0.6313,-1.3438,-82.50,341.46,-342.56
820,1595717629,-3.3047,-0.8354,-1.2539,-73.41,319.88,-310.30
821,1595722628,-3.0518,-0.9961,-1.1138,-48.90,305.55,-278.17
822,1595727629,-2.8735,-1.1182,-0.9595,-12.20,286.71,-247.56
823,1595732627,-2.7793,-1.1602,-0.8662,30.30,266.46,-220.18
824,1595737629,-2.8389,-1.1304,-0.8110,71.71,249.02,-197.56
825,1595742628,-3.0010,-1.0625,-0.7349,106.77,232.07,-180.30
826,1595748023,-3.1118,-1.0039,-0.6704,135.61,213.48,-166.46
827,1595752629,-3.0923,-0.9683,-0.6494,145.30,201.59,-160.67
828,1595757629,-2.9951,-0.9463,-0.6631,145.61,187.32,-156.77
829,1595762629,-2.9116,-0.9883,-0.6372,133.23,173.41,-155.67
830,1595767628,-2.8794,-1.0869,-0.5669,107.38,160.30,-155.98
831,1595772629,-2.8125,-1.1841,-0.4873,69.88,148.72,-156.89
832,1595777630,-2.6807,-1.2490,-0.3989,23.48,138.48,-158.11
833,1595782629,-2.5249,-1.3003,-0.2993,-27.56,129.82,-159.57
834,1595787627,-2.3926,-1.3145,-0.2139,-78.05,122.62,-160.91
835,1595793147,-2.2324,-1.3379,-0.1729,-129.63,115.12,-162.13
836,1595797629,-2.0835,-1.3721,-0.1694,-155.00,110.43,-162.32
837,1595802628,-1.8853,-1.3877,-0.1445,-174.51,104.27,-161.77
838,1595807629,-1.7349,-1.4131,-0.1318,-180.67,98.17,-160.61
839,1595812627,-1.6816,-1.4199,-0.1294,-174.21,91.77,-158.84
840,1595817629,-1.6626,-1.4053,-0.1216,-155.98,84.63,-157.32
841,1595822628,-1.6646,-1.3726,-0.1187,-127.56,78.54,-156.10
842,1595827631,-1.6650,-1.3403,-0.1318,-90.79,71.89,-155.37
843,1595832627,-1.6494,-1.2944,-0.1416,-48.41,64.63,-154.94
844,1595837629,-1.6401,-1.2632,-0.1523,-4.02,57.44,-155.00
845,1595842628,-1.6108,-1.2266,-0.1611,38.90,49.82,-155.55
846,1595847630,-1.5698,-1.1802,-0.1616,82.93,40.79,-156.40
847,1595852627,-1.5288,-1.1445,-0.1665,105.73,34.94,-157.26
848,1595857629,-1.4844,-1.1074,-0.1738,125.79,27.80,-158.60
849,1595862628,-1.4268,-1.0645,-0.2041,136.65,21.40,-160.12
850,1595867629,-1.3872,-1.0347,-0.2549,138.41,14.82,-162.01
851,1595872627,-1.3887,-1.0278,-0.2847,132.26,8.90,-163.90
852,1595877629,-1.3706,-1.0166,-0.3042,118.05,3.48,-165.67
853,1595882629,-1.3359,-1.0088,-0.3091,97.44,-0.91,-167.32
854,1595887629,-1.2861,-0.9878,-0.3018,71.89,-4.57,-168.66
855,1595892629,-1.2368,-0.9727,-0.2939,43.35,-7.20,-169.63
856,1595897628,-1.1602,-0.9346,-0.2832,14.09,-8.72,-169.94
857,1595902629,-1.0430,-0.8872,-0.2935,-13.84,-9.57,-169.76
858,1595907629,-0.9282,-0.8564,-0.3091,-38.35,-9.82,-168.72
859,1595912632,-0.8364,-0.8281,-0.3223,-58.78,-9.88,-166.89
860,1595917628,-0.7485,-0.7983,-0.3320,-74.27,-9.57,-164.15
861,1595922629,-0.6587,-0.7837,-0.3403,-85.30,-9.02,-160.61
862,1595927629,-0.5791,-0.7671,-0.3472,-91.83,-8.48,-156.34
863,1595932628,-0.5049,-0.7393,-0.3643,-94.39,-7.68,-151.71
864,1595937629,-0.4712,-0.7070,-0.3828,-93.54,-6.95,-147.07
865,1595942627,-0.4717,-0.6953,-0.3916,-89.82,-6.34,-142.13
866,1595947630,-0.4688,-0.6919,-0.4014,-83.96,-5.67,-137.20
867,1595952627,-0.4595,-0.6929,-0.4072,-76.52,-4.70,-132.26
868,1595957629,-0.4697,-0.6787,-0.4214,-68.41,-3.84,-127.44
869,1595962628,-0.4917,-0.6729,-0.4346,-60.06,-2.99,-122.80
870,1595967692,-0.5264,-0.6694,-0.4321,-52.20,-1.71,-118.41
871,1595972629,-0.5498,-0.6782,-0.4277,-44.94,-0.30,-114.27
872,1595977628,-0.5601,-0.6719,-0.4419,-38.60,1.28,-110.06
873,1595982630,-0.5542,-0.6519,-0.4390,-32.99,3.05,-106.10
874,1595987629,-0.5391,-0.6255,-0.4380,-28.17,5.06,-102.38
875,1595992629,-0.5181,-0.6001,-0.4365,-24.02,7.13,-98.90
876,1595997630,-0.4922,-0.5835,-0.4473,-20.73,9.15,-95.49
877,1596002629,-0.4546,-0.5693,-0.4453,-18.11,11.46,-92.32
878,1596007628,-0.4097,-0.5547,-0.4336,-16.52,13.90,-89.15
879,1596012630,-0.3774,-0.5347,-0.4341,-15.98,16.40,-86.10
880,1596017629,-0.3647,-0.5112,-0.4326,-16.28,18.96,-83.17
881,1596022628,-0.3584,-0.5063,-0.4214,-17.44,21.59,-80.24
882,1596027629,-0.3691,-0.4907,-0.4175,-18.66,24.45,-77.38
883,1596032627,-0.3638,-0.4717,-0.4238,-19.63,27.50,-74.33
884,1596037629,-0.3315,-0.4502,-0.4297,-19.94,30.55,-71.34
885,1596042628,-0.2876,-0.4365,-0.4634,-19.33,33.48,-68.29
886,1596047630,-0.2554,-0.4385,-0.4858,-17.93,35.98,-64.94
887,1596052627,-0.2505,-0.4404,-0.5093,-15.98,38.17,-61.46
888,1596057629,-0.2578,-0.4497,-0.5303,-13.60,40.18,-57.80
889,1596062628,-0.2612,-0.4619,-0.5342,-11.16,42.13,-54.09
890,1596067629,-0.2671,-0.4614,-0.5376,-8.78,44.02,-50.06
891,1596072629,-0.2500,-0.4585,-0.5356,-6.59,46.10,-46.16
892,1596077629,-0.2246,-0.4614,-0.5352,-4.39,47.99,-42.26
893,1596082628,-0.2085,-0.4629,-0.5518,-2.56,49.88,-38.17
894,1596087629,-0.1992,-0.4551,-0.5508,-0.91,51.40,-34.39
895,1596092627,-0.1860,-0.4453,-0.5527,0.00,53.05,-30.73
896,1596097689,-0.1812,-0.4429,-0.5479,0.30,54.70,-27.32
897,1596102628,-0.1890,-0.4565,-0.5347,0.00,56.04,-24.15
898,1596107629,-0.1914,-0.4600,-0.5264,-1.28,57.68,-21.10
899,1596112627,-0.1978,-0.4712,-0.5059,-3.29,59.15,-18.17
900,1596117629,-0.2080,-0.4795,-0.4839,-5.18,60.91,-15.37
901,1596122629,-0.2124,-0.4756,-0.4751,-6.71,62.56,-12.62
902,1596127629,-0.2007,-0.4814,-0.4697,-7.20,64.09,-10.00
903,1596132627,-0.1909,-0.4766,-0.4634,-6.65,65.49,-7.38
904,1596137629,-0.1924,-0.4761,-0.4531,-4.82,66.71,-4.70
905,1596142628,-0.1958,-0.4751,-0.4399,-1.89,68.05,-2.01
906,1596147629,-0.1885,-0.4712,-0.4312,2.13,69.15,0.61
907,1596152628,-0.1655,-0.4707,-0.4224,6.89,70.06,3.11
908,1596157766,-0.1455,-0.4624,-0.4229,11.71,70.85,5.67
909,1596162629,-0.1172,-0.4561,-0.4204,16.52,71.52,7.99
910,1596167629,-0.1035,-0.4644,-0.4307,20.55,72.07,10.18
911,1596172724,-0.1050,-0.4653,-0.4346,23.41,72.44,11.89
912,1596177628,-0.1084,-0.4697,-0.4385,24.82,72.68,13.60
913,1596182629,-0.1226,-0.4771,-0.4375,24.63,72.99,14.94
914,1596187629,-0.1426,-0.4854,-0.4346,22.99,73.60,16.04
915,1596192628,-0.1548,-0.4932,-0.4316,20.06,74.15,16.89
916,1596197632,-0.1528,-0.4907,-0.4233,16.16,74.76,17.62
917,1596202629,-0.1494,-0.4873,-0.4209,11.77,75.43,18.29
918,1596207630,-0.1450,-0.4897,-0.4209,7.38,76.04,18.84
919,1596212629,-0.1479,-0.5015,-0.4126,3.48,76.65,19.45
920,1596217627,-0.1401,-0.5142,-0.4058,-0.06,77.26,20.55
921,1596222629,-0.1250,-0.5220,-0.4033,-1.46,77.68,21.52
922,1596227629,-0.1045,-0.5430,-0.4082,-1.95,78.11,22.99
923,1596232629,-0.0791,-0.5620,-0.4136,-1.16,78.29,25.00
924,1596237628,-0.0669,-0.5762,-0.4189,0.79,78.54,27.38
925,1596242629,-0.0518,-0.5874,-0.4116,3.66,78.54,30.00
926,1596247628,-0.0342,-0.5918,-0.4038,7.32,78.60,32.93
927,1596252629,-0.0122,-0.5889,-0.4053,11.59,78.66,35.91
928,1596257629,0.0137,-0.5830,-0.4072,16.22,78.72,38.90
929,1596262629,0.0381,-0.5752,-0.4058,20.91,78.72,41.89
930,1596267628,0.0571,-0.5698,-0.4146,25.55,78.54,44.70
931,1596272629,0.0688,-0.5645,-0.4189,29.57,78.41,47.38
932,1596277628,0.0850,-0.5498,-0.4302,32.38,78.23,49.51
933,1596282629,0.0820,-0.5420,-0.4277,33.90,77.99,51.34
934,1596288130,0.0649,-0.5503,-0.4185,33.23,77.87,53.17
935,1596292629,0.0508,-0.5688,-0.4111,31.28,77.87,54.33
936,1596298025,0.0264,-0.5879,-0.3921,26.34,78.41,55.79
937,1596302629,0.0259,-0.5918,-0.3877,22.38,78.84,56.95
938,1596307629,0.0317,-0.6030,-0.3901,16.89,79.45,58.29
939,1596312629,0.0347,-0.6177,-0.3926,11.95,80.12,59.57
940,1596317628,0.0322,-0.6318,-0.4072,7.80,80.61,61.04
941,1596322629,0.0210,-0.6494,-0.4170,5.30,81.16,62.68
942,1596327628,0.0151,-0.6675,-0.4297,4.45,81.89,64.76
943,1596332629,0.0239,-0.6899,-0.4302,5.30,82.20,67.01
944,1596337629,0.0356,-0.7031,-0.4360,7.62,82.93,69.45
945,1596342629,0.0508,-0.7202,-0.4458,10.98,83.54,71.95
946,1596347628,0.0557,-0.7310,-0.4434,15.24,83.90,74.51
947,1596352629,0.0605,-0.7383,-0.4429,19.70,83.96,76.83
948,1596357628,0.0625,-0.7368,-0.4331,24.09,85.30,79.09
949,1596362629,0.0693,-0.7378,-0.4312,27.74,85.85,81.04
950,1596367629,0.0820,-0.7344,-0.4297,30.43,85.85,82.74
951,1596372629,0.0903,-0.7227,-0.4263,32.26,86.16,83.96
952,1596377628,0.0918,-0.7080,-0.4263,32.80,87.93,84.88
953,1596382629,0.0854,-0.7134,-0.4282,32.01,88.96,85.98
954,1596387628,0.0649,-0.7188,-0.4219,30.00,90.06,85.73
955,1596392630,0.0552,-0.7290,-0.4175,26.77,91.16,86.52
956,1596397629,0.0425,-0.7363,-0.4121,22.87,92.13,86.95
957,1596402629,0.0439,-0.7480,-0.4058,18.17,93.29,87.13
958,1596407628,0.0400,-0.7588,-0.4043,12.93,94.27,87.20
959,1596412629,0.0312,-0.7715,-0.3960,7.50,95.18,87.07
960,1596418017,0.0352,-0.7886,-0.3838,1.28,96.59,87.56
961,1596422741,0.0464,-0.7954,-0.3745,-2.50,97.32,88.72
962,1596427628,0.0591,-0.8105,-0.3735,-6.65,98.35,89.02
963,1596432629,0.0625,-0.8115,-0.3633,-9.82,99.27,90.06
964,1596437627,0.0542,-0.8081,-0.3599,-12.20,100.49,90.37
965,1596442628,0.0513,-0.8213,-0.3496,-13.90,101.46,91.04
966,1596447629,0.0620,-0.8369,-0.3315,-15.18,102.80,91.71
967,1596452628,0.0664,-0.8486,-0.3359,-15.30,103.96,92.50
968,1596457630,0.0654,-0.8579,-0.3374,-14.76,105.18,93.29
969,1596462627,0.0669,-0.8569,-0.3301,-13.23,106.40,94.33
970,1596467629,0.0747,-0.8491,-0.3374,-10.79,107.50,95.30
971,1596472628,0.0845,-0.8540,-0.3472,-7.62,108.41,96.16
972,1596477629,0.0864,-0.8633,-0.3579,-4.21,109.15,97.07
973,1596482629,0.0723,-0.8804,-0.3535,-0.67,109.76,97.87
974,1596487629,0.0454,-0.8916,-0.3540,2.38,110.37,98.60
975,1596492629,0.0244,-0.9009,-0.3569,4.76,110.85,99.33
976,1596497629,0.0059,-0.8960,-0.3535,6.40,111.46,99.82
977,1596502629,-0.0156,-0.8896,-0.3457,7.26,112.38,99.88
978,1596507629,-0.0239,-0.8877,-0.3423,7.74,113.23,99.63
979,1596512628,-0.0186,-0.8794,-0.3433,7.87,114.15,99.27
980,1596517629,-0.0234,-0.8818,-0.3394,7.99,115.30,98.72
981,1596522627,-0.0264,-0.8843,-0.3379,8.17,116.28,98.05
982,1596527629,-0.0322,-0.8960,-0.3384,8.78,117.56,97.32
983,1596532628,-0.0376,-0.8994,-0.3408,10.24,119.09,96.71
984,1596537629,-0.0327,-0.9092,-0.3340,12.13,120.61,96.28
985,1596542627,-0.0342,-0.9214,-0.3301,14.57,121.95,96.04
986,1596547629,-0.0352,-0.9360,-0.3271,17.38,123.48,95.91
987,1596552628,-0.0288,-0.9570,-0.3325,20.37,124.94,96.04
988,1596557629,-0.0122,-0.9658,-0.3257,23.05,126.40,96.04
989,1596562628,-0.0024,-0.9790,-0.3218,25.18,127.99,96.34
990,1596567629,-0.0010,-0.9844,-0.3169,26.83,129.63,96.28
991,1596572628,-0.0044,-0.9819,-0.3105,27.80,131.28,96.28
992,1596577629,0.0010,-0.9658,-0.3062,28.35,133.11,95.98
993,1596582627,0.0186,-0.9478,-0.3032,28.35,134.94,95.24
994,1596587629,0.0386,-0.9419,-0.3003,28.17,136.89,94.27
995,1596592628,0.0537,-0.9395,-0.2944,27.99,139.15,92.93
996,1596597631,0.0493,-0.9375,-0.2969,27.74,141.28,91.71
997,1596602627,0.0425,-0.9390,-0.2920,27.93,143.54,90.37
998,1596607629,0.0371,-0.9395,-0.2896,28.17,145.79,89.02
999,1596612628,0.0371,-0.9429,-0.2954,28.84,148.05,88.48
1000,1596617629,0.0386,-0.9429,-0.2808,30.00,150.43,87.20
1001,1596622627,0.0405,-0.9385,-0.2734,31.34,152.38,86.59
1002,1596627629,0.0454,-0.9331,-0.2676,33.11,154.39,86.04
1003,1596632628,0.0425,-0.9341,-0.2588,34.82,156.22,85.18
1004,1596637629,0.0264,-0.9453,-0.2485,36.28,157.93,84.57
1005,1596642627,0.0112,-0.9526,-0.2339,37.93,159.76,83.90
1006,1596647629,0.0024,-0.9668,-0.2207,39.27,161.65,83.48
1007,1596652628,-0.0044,-0.9746,-0.2173,40.61,163.23,83.29
1008,1596657629,-0.0083,-0.9795,-0.2061,42.01,165.06,82.87
1009,1596662628,0.0005,-0.9810,-0.2046,43.78,166.65,82.44
1010,1596667629,0.0073,-0.9868,-0.2036,45.73,168.17,81.83
1011,1596672628,0.0171,-0.9863,-0.2036,47.80,169.82,81.16
1012,1596677629,0.0249,-0.9932,-0.2017,49.94,171.65,80.24
1013,1596682627,0.0342,-1.0010,-0.1943,51.71,173.23,79.15
1014,1596687629,0.0483,-1.0044,-0.1973,53.17,174.76,77.99
1015,1596692628,0.0605,-1.0015,-0.1924,54.15,176.40,76.59
1016,1596697629,0.0688,-1.0049,-0.1875,54.45,178.11,75.12
1017,1596702629,0.0771,-1.0107,-0.1914,54.15,179.82,73.66
1018,1596707739,0.0752,-1.0200,-0.1841,53.29,181.59,72.26
1019,1596712629,0.0581,-1.0337,-0.1670,51.89,183.35,71.04
1020,1596717629,0.0430,-1.0386,-0.1470,50.06,185.30,69.88
1021,1596722629,0.0405,-1.0444,-0.1440,48.29,187.13,68.90
1022,1596727627,0.0415,-1.0454,-0.1309,46.65,189.02,67.99
1023,1596732629,0.0488,-1.0459,-0.1294,45.61,190.73,67.20
1024,1596737627,0.0547,-1.0439,-0.1206,45.06,192.44,66.46
1025,1596742628,0.0547,-1.0352,-0.1108,44.88,193.54,65.67
1026,1596747629,0.0518,-1.0283,-0.1025,45.18,194.76,64.88
1027,1596752628,0.0444,-1.0273,-0.1011,45.43,195.61,63.96
1028,1596757629,0.0308,-1.0327,-0.1016,45.43,196.59,62.93
1029,1596762627,0.0229,-1.0322,-0.0938,45.00,197.32,61.71
1030,1596767630,0.0146,-1.0337,-0.0889,43.90,198.11,60.30
1031,1596772645,0.0059,-1.0371,-0.0786,42.20,198.66,58.96
1032,1596777629,0.0044,-1.0376,-0.0830,39.51,199.63,57.56
1033,1596782627,0.0098,-1.0342,-0.0718,36.59,200.24,56.16
1034,1596787630,0.0186,-1.0352,-0.0635,33.29,201.16,54.63
1035,1596792628,0.0312,-1.0342,-0.0562,30.18,201.89,53.11
1036,1596797629,0.0376,-1.0410,-0.0596,27.62,202.87,51.71
1037,1596802627,0.0469,-1.0430,-0.0591,25.67,203.78,50.43
1038,1596807629,0.0601,-1.0493,-0.0537,24.51,204.63,49.39
1039,1596812628,0.0645,-1.0625,-0.0439,24.39,205.61,48.41
1040,1596817629,0.0786,-1.0830,-0.0386,24.76,206.52,47.74
1041,1596822627,0.0879,-1.0938,-0.0278,25.79,207.50,47.32
1042,1596828038,0.1196,-1.1030,-0.0244,27.38,208.41,47.38
1043,1596832629,0.1367,-1.1055,-0.0273,28.41,208.84,47.26
1044,1596837628,0.1597,-1.1118,-0.0239,29.27,209.15,47.38
1045,1596842629,0.1792,-1.1138,-0.0298,29.51,209.02,47.44
1046,1596847628,0.1899,-1.1177,-0.0181,28.29,208.84,47.32
1047,1596852629,0.1895,-1.1274,-0.0093,25.73,208.54,47.26
1048,1596857629,0.1909,-1.1343,0.0039,21.71,208.35,47.13
1049,1596862629,0.1831,-1.1509,0.0156,16.28,208.05,46.65
1050,1596867628,0.1670,-1.1533,0.0146,10.06,207.74,46.28
1051,1596872629,0.1489,-1.1484,0.0220,3.23,207.56,45.85
1052,1596877628,0.1328,-1.1445,0.0225,-3.54,207.32,45.18
1053,1596882629,0.1104,-1.1401,0.0269,-9.70,207.01,44.45
1054,1596887629,0.0796,-1.1406,0.0337,-15.55,207.01,43.66
1055,1596892629,0.0469,-1.1377,0.0464,-20.12,206.77,42.87
1056,1596897628,0.0459,-1.1392,0.0625,-23.23,206.89,42.20
1057,1596902702,0.0542,-1.1299,0.0684,-24.63,206.89,41.40
1058,1596907628,0.0776,-1.1206,0.0732,-24.21,206.40,40.67
1059,1596912629,0.0977,-1.1133,0.0737,-22.13,205.73,39.94
1060,1596917629,0.1118,-1.1079,0.0718,-18.90,204.82,39.09
1061,1596922629,0.1279,-1.1118,0.0713,-15.06,203.48,38.05
1062,1596927628,0.1299,-1.1099,0.0708,-11.40,202.26,37.01
1063,1596932629,0.1362,-1.1147,0.0830,-8.48,200.61,35.73
1064,1596937628,0.1313,-1.1167,0.0854,-6.83,198.90,34.15
1065,1596942629,0.1240,-1.1162,0.0981,-6.46,197.26,32.38
1066,1596947629,0.1191,-1.1182,0.1074,-7.62,195.43,30.30
1067,1596952629,0.1157,-1.1230,0.1035,-10.06,193.60,28.11
1068,1596957628,0.1147,-1.1211,0.1045,-13.35,191.71,25.85
1069,1596962629,0.1099,-1.1182,0.1089,-17.50,189.70,23.54
1070,1596967628,0.1104,-1.1138,0.1089,-21.71,187.74,21.34
1071,1596972630,0.1099,-1.1030,0.1016,-26.22,185.79,19.15
1072,1596977680,0.1113,-1.0918,0.1016,-30.98,183.54,17.20
1073,1596982629,0.1201,-1.0923,0.1099,-35.30,181.46,15.37
1074,1596987628,0.1104,-1.0928,0.1240,-39.63,179.45,13.90
1075,1596992629,0.1035,-1.0913,0.1289,-43.78,177.44,12.68
1076,1596997629,0.1035,-1.0894,0.1230,-47.20,175.61,11.89
1077,1597002628,0.1104,-1.0977,0.1426,-50.12,173.60,11.52
1078,1597007629,0.1113,-1.0928,0.1382,-52.13,171.65,11.34
1079,1597012627,0.1333,-1.0830,0.1558,-53.29,169.45,11.52
1080,1597017627,0.1567,-1.0845,0.1685,-53.66,167.26,11.89
1081,1597022629,0.1763,-1.0952,0.1738,-53.35,164.94,12.38
1082,1597027628,0.2129,-1.1431,0.1665,-52.44,162.38,12.93
1083,1597032627,0.2793,-1.2515,0.1152,-51.10,159.82,12.80
1084,1597037629,0.3101,-1.3076,0.0835,-50.06,158.17,11.95
1085,1597042629,0.3335,-1.2954,0.0962,-48.41,155.91,10.06
1086,1597047629,0.3242,-1.2793,0.0864,-45.91,153.90,7.80
1087,1597052629,0.2808,-1.2515,0.0776,-43.48,151.89,5.67
1088,1597057627,0.2388,-1.2031,0.0986,-41.34,149.70,3.72
1089,1597062629,0.2139,-1.1616,0.1299,-39.57,147.32,1.89
1090,1597067628,0.1904,-1.1196,0.1475,-38.17,144.88,0.43
1091,1597072630,0.1831,-1.0845,0.1694,-37.32,142.50,-0.85
1092,1597077627,0.1787,-1.0425,0.1904,-37.38,139.88,-2.07
1093,1597082629,0.1797,-1.0239,0.1963,-38.29,137.50,-3.11
1094,1597087628,0.1709,-1.0190,0.1958,-39.94,135.24,-4.02
1095,1597092629,0.1479,-1.0181,0.1919,-42.44,132.99,-4.76
1096,1597097629,0.1333,-1.0186,0.1963,-45.61,130.85,-5.49
1097,1597102629,0.1343,-1.0244,0.1851,-48.72,128.96,-6.10
1098,1597107628,0.1572,-1.0420,0.1714,-51.59,126.83,-6.71
1099,1597112629,0.1899,-1.0557,0.1562,-54.15,125.18,-7.56
1100,1597117627,0.2109,-1.0664,0.1445,-56.28,123.54,-8.48
1101,1597122631,0.2158,-1.0630,0.1426,-57.74,121.59,-9.39
1102,1597127628,0.2192,-1.0571,0.1377,-58.48,119.94,-10.18
