# skilleye imu stream v1
# device=xiao_esp32c6 imu=mpu6050 addr=0x68
# rate_hz=200 accel_range_g=16 gyro_range_dps=2000 dlpf_hz=94
# units: accel in g, gyro in deg/s, t_us in microseconds since boot (monotonic)
# no shared clock with the camera -- tap the racket once before each take
# so both recordings share a spike to align on
seq,t_us,ax,ay,az,gx,gy,gz
0,2143957628,0.7896,-0.3154,-0.0088,47.99,30.85,8.29
1,2143962629,0.8267,-0.3389,-0.0322,52.32,32.62,10.73
2,2143967631,0.8687,-0.3560,-0.0410,54.76,34.02,13.23
3,2143972629,0.8423,-0.3691,0.0190,55.61,35.12,15.85
4,2143977628,0.8428,-0.3501,0.0269,54.45,36.10,18.17
5,2143982629,0.8540,-0.3462,0.0210,51.10,36.34,20.06
6,2143987627,0.8657,-0.3809,0.0532,45.79,36.59,21.83
7,2143992630,0.8667,-0.4370,0.1211,39.21,36.65,23.66
8,2143997628,0.8564,-0.4219,0.1025,31.46,36.95,25.18
9,2144002631,0.8833,-0.4136,0.0918,22.74,36.65,26.04
10,2144007627,0.8940,-0.4365,0.1357,13.54,36.65,26.34
11,2144012629,0.9053,-0.4634,0.1836,4.76,36.89,26.52
12,2144017628,0.9106,-0.4731,0.1821,-2.74,37.32,26.34
13,2144022629,0.9072,-0.4937,0.1895,-8.54,37.74,25.98
14,2144027627,0.8989,-0.5181,0.2012,-12.01,38.35,25.73
15,2144032629,0.8862,-0.5488,0.1992,-13.05,39.02,25.91
16,2144037629,0.8730,-0.5728,0.1812,-12.20,39.57,26.95
17,2144042629,0.8560,-0.5547,0.1636,-10.06,40.67,28.29
18,2144047629,0.8457,-0.5337,0.1460,-7.26,41.65,30.00
19,2144052629,0.8311,-0.5449,0.1533,-3.96,42.07,31.65
20,2144057628,0.8203,-0.5737,0.1821,-0.30,41.89,33.23
21,2144062629,0.8164,-0.5864,0.2163,3.54,41.59,34.45
22,2144067627,0.8174,-0.5942,0.2466,7.44,40.79,35.37
23,2144072629,0.8130,-0.6113,0.2485,11.34,39.57,35.85
24,2144077628,0.7915,-0.6504,0.2490,15.06,37.62,36.16
25,2144082629,0.7695,-0.6523,0.2632,18.29,35.06,36.46
26,2144087627,0.7422,-0.6499,0.2827,20.61,32.13,36.10
27,2144092630,0.7246,-0.6567,0.3022,21.95,29.39,35.18
28,2144097628,0.7051,-0.6475,0.3184,22.62,26.83,33.84
29,2144102631,0.6943,-0.6528,0.3135,22.50,24.09,32.26
30,2144107627,0.6992,-0.6489,0.3135,21.65,21.46,30.79
31,2144112629,0.7041,-0.6318,0.3291,20.18,18.72,29.15
32,2144117628,0.7100,-0.6289,0.3477,18.48,16.28,27.26
33,2144122631,0.7095,-0.6343,0.3462,16.89,13.78,25.61
34,2144127627,0.7080,-0.6313,0.3325,15.73,11.46,24.39
35,2144132631,0.7114,-0.6055,0.3311,14.88,9.09,23.41
36,2144137628,0.7202,-0.5913,0.3262,14.45,6.89,22.44
37,2144142629,0.7070,-0.5859,0.3281,14.33,4.88,22.01
38,2144147629,0.7046,-0.5771,0.3232,14.09,3.17,21.65
39,2144152629,0.7285,-0.5376,0.2983,14.09,1.59,21.52
40,2144157628,0.7305,-0.5298,0.3350,14.15,0.43,21.59
41,2144162629,0.7231,-0.5239,0.3081,13.96,-0.43,21.77
42,2144167627,0.7349,-0.4990,0.2910,14.09,-0.91,22.44
43,2144172629,0.7354,-0.4805,0.2881,15.00,-1.28,23.41
44,2144177629,0.7197,-0.4722,0.2656,16.77,-0.98,24.57
45,2144182629,0.7012,-0.4668,0.2495,19.21,-0.91,26.04
46,2144187628,0.7046,-0.4526,0.2500,21.46,-0.67,27.74
47,2144192629,0.6934,-0.4448,0.2412,23.29,-0.37,29.57
48,2144197631,0.6689,-0.4365,0.2300,24.51,0.06,31.46
49,2144202629,0.6548,-0.4390,0.2500,25.30,0.67,33.35
50,2144207629,0.6475,-0.4404,0.2422,25.98,1.40,35.30
51,2144212629,0.6255,-0.4443,0.2446,26.71,2.07,37.26
52,2144217628,0.6060,-0.4629,0.2393,27.38,2.74,39.09
53,2144222629,0.5972,-0.4712,0.2471,27.74,3.35,41.04
54,2144227629,0.5957,-0.4849,0.2441,27.68,4.15,42.62
55,2144232628,0.5859,-0.4971,0.2466,27.20,4.82,44.09
56,2144237629,0.5728,-0.5073,0.2524,26.40,5.67,45.43
57,2144242630,0.5688,-0.5220,0.2490,25.37,6.40,46.77
58,2144247629,0.5610,-0.5327,0.2593,24.33,6.89,48.11
59,2144252628,0.5522,-0.5430,0.2729,23.23,7.50,49.45
60,2144257630,0.5361,-0.5532,0.2910,22.38,7.99,50.67
61,2144262631,0.5410,-0.5552,0.3018,22.13,8.17,52.01
62,2144267629,0.5337,-0.5674,0.3237,22.62,8.29,53.11
63,2144272627,0.5293,-0.5762,0.3472,24.51,7.93,54.27
64,2144277630,0.5278,-0.5850,0.3579,26.28,7.56,55.12
65,2144282628,0.5259,-0.5889,0.3809,28.54,6.83,56.16
66,2144287627,0.5278,-0.5933,0.3916,30.73,5.85,57.20
67,2144292632,0.5371,-0.6030,0.4155,32.80,4.76,58.41
68,2144297628,0.5415,-0.6084,0.4326,34.57,3.29,59.63
69,2144302629,0.5464,-0.6187,0.4409,36.04,1.77,60.91
70,2144307629,0.5488,-0.6216,0.4424,37.20,0.00,62.32
71,2144312631,0.5552,-0.6206,0.4438,37.32,-2.01,63.72
72,2144317628,0.5586,-0.6172,0.4473,36.40,-3.96,65.24
73,2144322629,0.5635,-0.6133,0.4463,34.45,-5.98,66.89
74,2144327628,0.5664,-0.6147,0.4395,31.83,-8.05,68.54
75,2144332631,0.5679,-0.6157,0.4409,29.15,-10.18,70.43
76,2144337628,0.5527,-0.6201,0.4351,26.34,-12.01,72.32
77,2144343164,0.5640,-0.6182,0.4277,23.72,-14.21,74.63
78,2144347629,0.5708,-0.6113,0.4175,21.83,-15.73,76.16
79,2144352629,0.5703,-0.6172,0.4106,19.88,-17.68,78.05
80,2144357629,0.5610,-0.6177,0.4092,18.29,-19.21,79.82
81,2144362628,0.5566,-0.6250,0.3936,17.01,-20.98,81.71
82,2144367629,0.5444,-0.6230,0.3892,15.73,-22.68,83.60
83,2144372629,0.5327,-0.6274,0.3779,14.27,-24.51,85.30
84,2144377630,0.5259,-0.6304,0.3701,12.44,-26.16,87.44
85,2144382628,0.5244,-0.6479,0.3677,10.73,-27.62,88.41
86,2144387629,0.5342,-0.6714,0.3643,9.76,-29.02,90.37
87,2144392629,0.5259,-0.6987,0.3530,10.61,-30.06,92.01
88,2144397629,0.5273,-0.7148,0.3306,12.93,-30.73,93.48
89,2144402628,0.5259,-0.7354,0.3086,15.79,-31.22,94.88
90,2144407629,0.5288,-0.7466,0.2871,17.93,-31.46,96.22
91,2144412629,0.5337,-0.7622,0.2642,18.96,-31.28,97.44
92,2144417628,0.5283,-0.7827,0.2422,18.90,-30.79,98.35
93,2144422629,0.5200,-0.8013,0.2227,17.80,-30.24,99.02
94,2144427628,0.5195,-0.8169,0.2012,16.22,-29.57,99.45
95,2144432629,0.5239,-0.8232,0.1826,14.88,-28.66,99.70
96,2144437628,0.5347,-0.8340,0.1724,14.39,-27.74,99.76
97,2144442629,0.5415,-0.8447,0.1626,14.76,-26.95,99.70
98,2144447628,0.5513,-0.8530,0.1631,15.98,-25.85,99.45
99,2144452629,0.5605,-0.8589,0.1592,17.68,-25.18,99.15
100,2144457629,0.5669,-0.8701,0.1519,19.39,-24.33,98.90
101,2144462629,0.5796,-0.8765,0.1372,20.49,-23.72,98.54
102,2144467628,0.5913,-0.8838,0.1294,20.61,-23.05,97.93
103,2144472629,0.6025,-0.8916,0.1250,19.57,-22.80,97.13
104,2144477628,0.6294,-0.8877,0.1187,18.29,-22.56,96.40
105,2144482629,0.6582,-0.8901,0.1099,17.01,-22.44,95.49
106,2144487628,0.6870,-0.8906,0.1074,16.10,-22.26,94.63
107,2144492629,0.7212,-0.8940,0.1016,16.16,-22.44,93.90
108,2144497628,0.7461,-0.9053,0.1006,16.95,-22.56,93.05
109,2144502630,0.7749,-0.9146,0.1030,18.17,-23.17,92.26
110,2144507628,0.7988,-0.9297,0.0986,20.00,-23.54,91.04
111,2144512629,0.8267,-0.9380,0.0962,22.01,-24.15,89.94
112,2144517628,0.8574,-0.9531,0.0796,23.90,-24.88,88.23
113,2144522629,0.8853,-0.9683,0.0762,25.00,-25.49,87.07
114,2144527628,0.9077,-0.9907,0.0693,25.24,-26.16,84.45
115,2144532629,0.9297,-1.0117,0.0684,24.82,-27.01,82.44
116,2144537628,0.9507,-1.0400,0.0596,23.66,-27.87,79.82
117,2144542629,0.9707,-1.0615,0.0571,21.95,-28.54,76.71
118,2144547629,0.9839,-1.0806,0.0464,19.51,-29.27,73.41
119,2144552629,0.9917,-1.0933,0.0244,16.34,-29.76,69.88
120,2144557628,0.9966,-1.1055,0.0112,12.44,-30.18,66.16
121,2144562631,1.0024,-1.1138,-0.0063,8.29,-30.37,62.38
122,2144567628,1.0010,-1.1235,-0.0142,4.09,-30.24,58.54
123,2144572629,0.9917,-1.1372,-0.0381,0.24,-29.70,54.45
124,2144577628,0.9878,-1.1426,-0.0498,-2.93,-28.78,50.61
125,2144582629,0.9683,-1.1436,-0.0732,-5.12,-27.38,46.59
126,2144587627,0.9502,-1.1494,-0.0991,-6.40,-25.49,42.93
127,2144592630,0.9316,-1.1489,-0.1226,-7.13,-23.11,39.21
128,2144597629,0.9072,-1.1494,-0.1406,-7.80,-20.30,35.67
129,2144602629,0.8906,-1.1523,-0.1582,-8.54,-17.01,32.26
130,2144607628,0.8711,-1.1597,-0.1743,-9.27,-13.29,28.78
131,2144612627,0.8389,-1.1753,-0.1992,-9.88,-9.27,25.55
132,2144617627,0.8081,-1.1841,-0.2236,-10.79,-4.76,22.26
133,2144622627,0.7754,-1.1792,-0.2319,-12.20,0.06,19.21
134,2144627646,0.7520,-1.1792,-0.2466,-13.90,4.94,16.16
135,2144632627,0.7354,-1.1860,-0.2632,-15.43,10.18,13.29
136,2144637632,0.7188,-1.1812,-0.2607,-16.40,15.61,10.37
137,2144642627,0.6973,-1.1846,-0.2622,-16.89,21.16,7.62
138,2144647627,0.6699,-1.1738,-0.2583,-16.89,27.07,4.88
139,2144652627,0.6504,-1.1670,-0.2529,-16.52,32.74,2.26
140,2144657631,0.6250,-1.1528,-0.2456,-16.28,38.48,-0.24
141,2144662627,0.6074,-1.1382,-0.2363,-16.04,44.02,-2.62
142,2144667627,0.5947,-1.1274,-0.2192,-16.40,49.21,-4.82
143,2144672627,0.5732,-1.1157,-0.1982,-17.32,54.33,-6.77
144,2144677627,0.5596,-1.0986,-0.1743,-18.72,59.09,-8.54
145,2144682684,0.5454,-1.0898,-0.1475,-20.06,63.60,-10.12
146,2144687644,0.5342,-1.0840,-0.1235,-21.04,67.68,-11.65
147,2144692627,0.5195,-1.0757,-0.0977,-21.95,71.34,-12.99
148,2144697627,0.5015,-1.0723,-0.0620,-23.05,74.70,-14.27
149,2144702627,0.4873,-1.0625,-0.0405,-24.94,77.93,-15.55
150,2144707627,0.4736,-1.0625,-0.0088,-27.38,80.55,-17.01
151,2144712627,0.4634,-1.0522,0.0137,-30.00,83.78,-18.41
152,2144717627,0.4561,-1.0425,0.0405,-32.32,86.04,-19.70
153,2144722627,0.4521,-1.0273,0.0557,-34.21,86.40,-20.85
154,2144727627,0.4409,-1.0137,0.0791,-35.79,88.78,-21.89
155,2144732627,0.4258,-0.9976,0.0972,-36.83,90.61,-22.74
156,2144737627,0.4102,-0.9858,0.1235,-37.62,92.01,-23.54
157,2144742627,0.4058,-0.9678,0.1538,-37.93,93.29,-24.15
158,2144747627,0.3975,-0.9609,0.1846,-37.74,94.39,-24.63
159,2144752627,0.3965,-0.9453,0.2129,-36.83,95.18,-25.06
160,2144757627,0.3965,-0.9419,0.2422,-35.67,95.49,-25.30
161,2144762627,0.3975,-0.9385,0.2622,-34.15,95.85,-25.49
162,2144767627,0.3833,-0.9331,0.2910,-32.99,95.55,-25.67
163,2144772896,0.3711,-0.9312,0.3145,-32.01,95.24,-26.10
164,2144777631,0.3740,-0.9326,0.3354,-31.34,94.76,-26.46
165,2144782628,0.3701,-0.9365,0.3628,-30.55,93.78,-26.83
166,2144787627,0.3750,-0.9346,0.3770,-29.51,92.62,-27.26
167,2144792627,0.3828,-0.9341,0.4150,-28.66,91.04,-27.87
168,2144797627,0.3911,-0.9326,0.4390,-27.87,89.09,-28.41
169,2144802758,0.4009,-0.9287,0.4634,-27.13,87.07,-29.02
170,2144807631,0.4048,-0.9233,0.4839,-27.13,85.06,-29.57
171,2144812628,0.4121,-0.9126,0.4951,-27.56,82.07,-30.06
172,2144817895,0.4194,-0.9058,0.5229,-28.48,79.02,-30.37
173,2144822629,0.4253,-0.8940,0.5449,-29.70,75.85,-30.67
174,2144827629,0.4292,-0.8813,0.5513,-30.79,72.74,-30.85
175,2144832630,0.4380,-0.8706,0.5625,-31.04,69.63,-30.85
176,2144837628,0.4448,-0.8643,0.5649,-30.79,66.65,-30.73
177,2144842629,0.4448,-0.8521,0.5571,-30.00,63.48,-30.30
178,2144847629,0.4492,-0.8442,0.5674,-29.21,60.43,-29.82
179,2144852629,0.4458,-0.8394,0.5742,-28.54,57.68,-29.51
180,2144857630,0.4546,-0.8442,0.5757,-27.68,54.94,-29.21
181,2144862629,0.4531,-0.8467,0.5713,-26.34,52.07,-28.90
182,2144867629,0.4565,-0.8516,0.5718,-24.76,49.21,-28.72
183,2144872629,0.4556,-0.8535,0.5659,-23.48,46.46,-28.54
184,2144877630,0.4561,-0.8550,0.5601,-23.17,43.84,-28.54
185,2144882629,0.4590,-0.8604,0.5522,-23.72,41.22,-28.41
186,2144887629,0.4575,-0.8633,0.5527,-24.51,38.78,-28.54
187,2144892628,0.4624,-0.8662,0.5493,-25.12,36.34,-28.66
188,2144897629,0.4648,-0.8604,0.5371,-25.24,34.09,-28.84
189,2144902629,0.4663,-0.8584,0.5229,-24.94,31.95,-28.78
190,2144907629,0.4600,-0.8530,0.5142,-24.39,29.94,-28.84
191,2144912628,0.4624,-0.8506,0.4966,-23.84,28.23,-28.66
192,2144917629,0.4639,-0.8447,0.4863,-23.11,26.46,-28.66
193,2144922722,0.4692,-0.8491,0.4761,-22.56,25.06,-28.90
194,2144927629,0.4722,-0.8550,0.4697,-21.40,23.90,-29.09
195,2144932629,0.5161,-0.8125,0.4395,-19.45,22.80,-29.57
196,2144937629,0.4766,-0.8779,0.4604,-16.40,22.01,-29.88
197,2144942628,0.4731,-0.8521,0.5044,-11.65,21.77,-30.18
198,2144947629,0.5205,-0.8516,0.3911,-7.44,21.10,-30.73
199,2144952628,0.5308,-0.8281,0.4048,-4.94,20.43,-30.98
200,2144957629,0.5312,-0.8213,0.4053,-4.45,20.43,-31.28
201,2144962629,0.5303,-0.8149,0.3853,-5.24,20.12,-31.40
202,2144967629,0.5498,-0.8066,0.3662,-6.34,19.88,-31.65
203,2144972628,0.5630,-0.7935,0.3496,-7.44,19.76,-31.95
204,2144977629,0.5820,-0.7817,0.3267,-8.48,19.45,-32.13
205,2144982628,0.6001,-0.7754,0.3027,-9.76,19.39,-32.07
206,2144987629,0.6157,-0.7764,0.2910,-10.79,19.33,-32.07
207,2144992631,0.6279,-0.7769,0.2866,-12.01,19.51,-32.01
208,2144997948,0.6362,-0.7764,0.2690,-13.60,19.88,-32.13
209,2145002629,0.6475,-0.7715,0.2598,-14.70,20.18,-32.26
210,2145007629,0.6719,-0.7656,0.2451,-16.22,21.04,-32.38
211,2145012629,0.6895,-0.7642,0.2422,-17.44,21.95,-32.50
212,2145017628,0.6982,-0.7607,0.2354,-18.29,22.99,-32.50
213,2145022629,0.7056,-0.7549,0.2285,-18.84,24.27,-32.68
214,2145027629,0.7241,-0.7471,0.2217,-19.09,25.55,-32.87
215,2145032629,0.7402,-0.7329,0.2256,-19.02,27.13,-32.99
216,2145037628,0.7578,-0.7280,0.2271,-18.96,28.66,-33.05
217,2145042629,0.7749,-0.7192,0.2358,-18.84,30.30,-33.05
218,2145047628,0.7842,-0.7095,0.2529,-18.96,31.65,-32.93
219,2145052629,0.7935,-0.7036,0.2700,-19.02,32.87,-32.68
220,2145057629,0.7979,-0.7012,0.2773,-19.09,33.66,-32.50
221,2145062629,0.8003,-0.7085,0.2866,-18.84,34.39,-32.26
222,2145067629,0.8076,-0.7188,0.3091,-18.41,34.94,-32.01
223,2145072628,0.8101,-0.7324,0.3149,-17.87,34.88,-32.01
224,2145077631,0.8169,-0.7451,0.3184,-17.38,34.88,-32.07
225,2145082628,0.8149,-0.7666,0.3311,-16.89,34.39,-32.44
226,2145087631,0.8159,-0.7852,0.3354,-16.40,33.84,-32.93
227,2145092627,0.8154,-0.8003,0.3447,-15.67,33.17,-33.72
228,2145097627,0.8198,-0.8179,0.3501,-14.39,32.56,-34.70
229,2145102657,0.8213,-0.8218,0.3516,-13.11,31.77,-35.85
230,2145107629,0.8267,-0.8301,0.3604,-12.07,30.91,-37.20
231,2145112629,0.8330,-0.8452,0.3643,-11.52,29.88,-38.60
232,2145117630,0.8350,-0.8491,0.3643,-11.89,28.72,-40.06
233,2145122629,0.8340,-0.8530,0.3770,-12.87,27.62,-41.77
234,2145127627,0.8345,-0.8604,0.3945,-14.02,26.59,-43.84
235,2145132631,0.8398,-0.8628,0.4019,-14.70,25.37,-45.55
236,2145137629,0.8486,-0.8569,0.4170,-14.88,24.27,-47.26
237,2145142628,0.8467,-0.8560,0.4263,-14.39,22.99,-48.90
238,2145147629,0.8535,-0.8584,0.4365,-13.60,21.46,-50.61
239,2145152628,0.8521,-0.8662,0.4448,-12.56,20.00,-51.95
240,2145157629,0.8477,-0.8682,0.4561,-11.89,18.41,-53.35
241,2145162628,0.8545,-0.8770,0.4629,-12.01,16.83,-54.88
242,2145167627,0.8540,-0.8828,0.4614,-12.07,15.30,-56.52
243,2145172629,0.8516,-0.8813,0.4639,-12.01,13.78,-57.99
244,2145177629,0.8564,-0.8779,0.4717,-11.46,12.07,-59.63
245,2145182628,0.8589,-0.8774,0.4692,-9.94,10.61,-61.10
246,2145187630,0.8618,-0.8672,0.4678,-7.87,9.09,-62.44
247,2145192627,0.8540,-0.8530,0.4722,-5.85,7.50,-63.66
248,2145197634,0.8486,-0.8428,0.4775,-4.27,6.16,-64.76
249,2145202628,0.8467,-0.8301,0.4692,-2.99,4.63,-65.79
250,2145207629,0.8340,-0.8184,0.4727,-2.13,3.17,-66.59
251,2145212628,0.8267,-0.8086,0.4736,-1.95,1.65,-67.44
252,2145217629,0.8276,-0.8037,0.4810,-2.38,0.30,-68.11
253,2145222628,0.8223,-0.8042,0.4883,-2.99,-0.98,-68.84
254,2145227627,0.8213,-0.8071,0.4956,-3.60,-2.26,-69.57
255,2145232631,0.8169,-0.8086,0.4854,-4.15,-3.54,-70.18
256,2145237628,0.8081,-0.8101,0.4805,-4.45,-4.63,-70.91
257,2145242628,0.8013,-0.8203,0.4854,-4.51,-5.67,-71.59
258,2145247629,0.7983,-0.8184,0.4814,-4.39,-6.59,-72.50
259,2145252629,0.7910,-0.8208,0.4814,-3.84,-7.20,-73.29
260,2145257629,0.7783,-0.8193,0.4839,-2.50,-7.93,-74.15
261,2145262629,0.7700,-0.8164,0.4849,-0.55,-8.41,-74.94
262,2145267628,0.7651,-0.8105,0.4766,1.89,-9.15,-75.61
263,2145272629,0.7583,-0.7993,0.4834,4.45,-9.63,-76.28
264,2145277629,0.7505,-0.7866,0.4849,6.89,-10.18,-76.59
265,2145282629,0.7568,-0.7739,0.4819,8.66,-10.67,-76.95
266,2145287628,0.7520,-0.7588,0.4731,9.94,-11.52,-77.07
267,2145292629,0.7407,-0.7476,0.4775,10.18,-12.20,-77.07
268,2145297627,0.7329,-0.7383,0.4829,9.63,-12.93,-76.89
269,2145302631,0.7324,-0.7271,0.4756,8.66,-13.60,-76.89
270,2145307629,0.7319,-0.7173,0.4790,7.80,-14.27,-76.83
271,2145312629,0.7275,-0.7065,0.4678,7.32,-14.88,-76.65
272,2145317631,0.7148,-0.6973,0.4678,7.20,-15.61,-76.34
273,2145322629,0.7114,-0.6919,0.4683,7.50,-16.04,-76.16
274,2145327629,0.7051,-0.6777,0.4678,8.41,-16.52,-75.98
275,2145332628,0.7017,-0.6704,0.4604,9.63,-16.71,-75.73
276,2145337630,0.7017,-0.6538,0.4502,11.16,-17.20,-75.55
277,2145342628,0.7002,-0.6465,0.4482,12.99,-17.32,-75.18
278,2145347629,0.6963,-0.6240,0.4424,14.63,-17.50,-74.51
279,2145352628,0.6934,-0.6157,0.4321,15.73,-17.38,-74.15
280,2145357629,0.6899,-0.5981,0.4233,17.32,-17.56,-73.29
281,2145362628,0.6885,-0.5869,0.4219,18.35,-17.50,-72.50
282,2145367631,0.6836,-0.5771,0.4229,19.15,-17.44,-71.59
283,2145372628,0.6807,-0.5708,0.4258,19.63,-17.50,-70.55
284,2145377684,0.6743,-0.5635,0.4253,20.12,-17.68,-69.51
285,2145382629,0.6665,-0.5557,0.4229,20.55,-17.80,-68.41
286,2145387629,0.6699,-0.5518,0.4238,21.16,-18.11,-67.26
287,2145392628,0.6597,-0.5479,0.4175,21.95,-18.29,-66.10
288,2145397629,0.6440,-0.5410,0.4150,22.87,-18.66,-65.00
289,2145402630,0.6328,-0.5405,0.4131,24.09,-19.09,-63.96
290,2145408033,0.6294,-0.5361,0.4077,25.24,-19.51,-62.93
291,2145412630,0.6260,-0.5298,0.4004,26.22,-20.06,-61.89
292,2145417629,0.6240,-0.5239,0.3911,27.13,-20.49,-60.79
293,2145422629,0.6216,-0.5161,0.3857,27.87,-20.91,-59.94
294,2145427628,0.6211,-0.5112,0.3853,28.66,-21.22,-58.90
295,2145432629,0.6191,-0.5103,0.3794,29.45,-21.52,-57.93
296,2145437629,0.6172,-0.5010,0.3813,30.06,-21.77,-56.89
297,2145442629,0.6245,-0.5034,0.3643,30.91,-22.01,-55.79
298,2145447628,0.6250,-0.4941,0.3628,31.65,-22.07,-54.70
299,2145452629,0.6250,-0.4927,0.3560,31.95,-22.26,-53.54
300,2145457629,0.6284,-0.4878,0.3623,31.77,-22.38,-52.44
301,2145462629,0.6216,-0.4829,0.3540,31.71,-22.32,-51.34
302,2145467628,0.6172,-0.4839,0.3501,32.07,-22.44,-50.30
303,2145472629,0.6074,-0.4761,0.3545,32.80,-22.56,-49.39
304,2145477629,0.5957,-0.4668,0.3374,33.29,-22.32,-48.48
305,2145482629,0.5942,-0.4624,0.3413,33.90,-22.26,-47.38
306,2145487628,0.5884,-0.4565,0.3345,34.21,-22.13,-46.34
307,2145492629,0.5811,-0.4453,0.3257,34.51,-21.95,-45.18
308,2145497628,0.5786,-0.4380,0.3267,35.12,-21.77,-44.02
309,2145502628,0.5811,-0.4312,0.3179,36.34,-21.40,-42.74
310,2145507629,0.5908,-0.4316,0.3179,37.93,-21.16,-41.10
311,2145512628,0.5830,-0.4180,0.3184,39.45,-20.85,-39.70
312,2145517629,0.5811,-0.4204,0.3120,40.98,-20.49,-38.23
313,2145522628,0.5815,-0.4189,0.3091,42.26,-20.18,-36.52
314,2145527630,0.5835,-0.4033,0.3066,42.99,-20.06,-35.00
315,2145532628,0.5840,-0.4004,0.2964,43.23,-19.70,-33.54
316,2145537629,0.5854,-0.3892,0.2993,42.80,-19.33,-31.89
317,2145542628,0.5913,-0.3804,0.2959,42.32,-19.02,-30.43
318,2145547629,0.5938,-0.3711,0.2935,42.07,-18.41,-28.84
319,2145552628,0.6001,-0.3672,0.2788,42.80,-17.74,-27.20
320,2145557629,0.6001,-0.3569,0.2798,44.27,-17.20,-25.37
321,2145562628,0.6021,-0.3516,0.2822,46.22,-16.34,-23.48
322,2145567629,0.6079,-0.3408,0.2832,48.41,-15.49,-21.40
323,2145572629,0.6206,-0.3447,0.2822,50.37,-14.82,-19.39
324,2145577629,0.6196,-0.3433,0.2876,51.34,-14.27,-17.32
325,2145582629,0.6172,-0.3535,0.2910,51.22,-13.84,-15.24
326,2145587627,0.6108,-0.3589,0.2910,50.12,-13.66,-13.48
327,2145592631,0.6089,-0.3721,0.3018,48.78,-13.60,-11.95
328,2145597629,0.6084,-0.3770,0.3027,47.50,-13.54,-10.73
329,2145602629,0.6143,-0.3779,0.3101,46.77,-13.72,-9.70
330,2145607628,0.6343,-0.3730,0.3149,46.40,-13.72,-8.72
331,2145612629,0.6479,-0.3706,0.3135,46.89,-13.78,-7.62
332,2145617629,0.6758,-0.3696,0.3145,48.66,-13.84,-6.40
333,2145622629,0.7095,-0.3696,0.3076,51.22,-13.78,-4.94
334,2145627628,0.7510,-0.3706,0.3037,53.78,-14.15,-3.17
335,2145632629,0.7817,-0.3735,0.2866,54.76,-14.39,-1.28
336,2145637629,0.8125,-0.3853,0.2681,53.48,-15.00,0.55
337,2145642629,0.8364,-0.3970,0.2646,50.43,-15.37,2.13
338,2145647628,0.8599,-0.4033,0.2451,46.52,-16.16,3.41
339,2145652629,0.8799,-0.4175,0.2285,41.95,-16.71,4.63
340,2145657629,0.9028,-0.4297,0.1973,36.65,-17.56,5.73
341,2145662629,0.9287,-0.4541,0.1738,30.00,-18.05,6.71
342,2145667628,0.9536,-0.4829,0.1538,21.10,-18.41,7.38
343,2145672629,0.9800,-0.5015,0.1279,10.18,-18.41,7.74
344,2145677629,1.0137,-0.5088,0.0771,-1.95,-18.17,7.93
345,2145682630,1.0615,-0.5044,0.0176,-14.57,-17.56,8.17
346,2145687628,1.1089,-0.5063,-0.0415,-26.95,-16.16,8.84
347,2145692629,1.1465,-0.5132,-0.0801,-37.13,-14.02,9.70
348,2145697629,1.1738,-0.5298,-0.1152,-43.48,-11.22,10.79
349,2145702629,1.1689,-0.5537,-0.1489,-45.12,-7.87,11.34
350,2145707629,1.1519,-0.5898,-0.1704,-42.62,-4.39,11.65
351,2145712628,1.1113,-0.6230,-0.1650,-37.38,-0.61,11.52
352,2145717629,1.0835,-0.6641,-0.1543,-30.30,2.74,10.73
353,2145722628,1.0635,-0.6953,-0.1245,-21.22,6.04,9.51
354,2145727629,1.0537,-0.7300,-0.0908,-9.33,8.90,8.05
355,2145732628,1.0439,-0.7578,-0.0674,5.55,11.71,6.22
356,2145737629,1.0332,-0.7681,-0.0430,23.29,14.27,4.39
357,2145742628,1.0596,-0.7524,-0.0098,43.72,16.22,2.80
358,2145747629,1.0728,-0.7495,-0.0269,67.13,17.74,1.52
359,2145752628,1.0898,-0.7012,0.0737,93.29,18.96,0.91
360,2145757629,1.0962,-0.6909,0.0864,119.76,20.00,0.55
361,2145762628,0.9551,-0.6318,0.0327,143.78,20.18,0.43
362,2145767629,0.9951,-0.5923,0.1338,165.00,20.00,0.24
363,2145772629,1.0713,-0.5796,0.1704,181.52,20.00,0.30
364,2145777627,1.0742,-0.5337,0.1440,192.26,19.39,0.24
365,2145782629,1.0684,-0.5112,0.0762,196.59,18.23,0.30
366,2145787629,1.1558,-0.5317,0.1211,195.37,16.59,0.00
367,2145792631,1.0083,-0.7148,0.2896,187.44,15.67,-0.12
368,2145797629,1.0757,-0.6035,0.2251,171.46,14.51,-1.46
369,2145802630,0.9697,-0.6499,0.2295,151.16,12.26,-4.33
370,2145807628,0.8906,-0.7300,0.2104,130.30,10.06,-7.56
371,2145812630,0.5059,-0.8643,-0.1338,110.98,7.26,-11.22
372,2145817629,0.7178,-0.7158,-0.1230,89.94,3.11,-16.16
373,2145822630,0.6895,-0.7134,0.1572,72.74,1.52,-21.22
374,2145827628,0.6650,-0.6880,-0.0215,62.50,-0.30,-25.61
375,2145832629,0.6846,-0.6968,-0.0444,60.00,-3.17,-29.51
376,2145837629,0.7178,-0.7109,0.1240,62.62,-4.82,-32.68
377,2145842629,0.7510,-0.6943,0.0615,67.87,-6.40,-35.43
378,2145847628,0.7603,-0.6489,0.0620,72.80,-8.35,-37.80
379,2145852629,0.7930,-0.6055,0.1807,76.46,-9.39,-39.82
380,2145857629,0.8462,-0.5845,0.1777,78.90,-10.30,-41.28
381,2145862629,0.8765,-0.5527,0.1743,80.55,-11.40,-41.95
382,2145867628,0.9111,-0.5186,0.2598,81.89,-11.95,-42.26
383,2145872629,0.9565,-0.4893,0.2910,83.23,-12.44,-41.89
384,2145877629,1.0005,-0.4731,0.2861,84.70,-13.05,-41.04
385,2145882629,1.0122,-0.4585,0.3369,85.73,-13.48,-39.76
386,2145887629,1.0068,-0.4482,0.3711,85.61,-13.90,-38.54
387,2145892628,0.9888,-0.4395,0.3833,83.66,-14.51,-37.50
388,2145897629,0.9595,-0.4282,0.4243,80.37,-14.82,-36.59
389,2145902628,0.9248,-0.4072,0.4375,77.07,-14.88,-35.98
390,2145907627,0.8926,-0.3994,0.4336,74.63,-15.24,-35.49
391,2145912629,0.8584,-0.3813,0.4468,74.15,-15.91,-35.00
392,2145917629,0.8452,-0.3794,0.4497,75.85,-16.65,-34.70
393,2145922629,0.8247,-0.3638,0.4346,79.33,-17.56,-34.27
394,2145927628,0.7930,-0.3540,0.4468,83.72,-18.54,-33.96
395,2145932629,0.7842,-0.3413,0.4497,88.41,-19.70,-33.48
396,2145937629,0.7944,-0.3364,0.4463,92.68,-20.85,-33.05
397,2145942629,0.7993,-0.3345,0.4448,96.83,-21.89,-32.56
398,2145947628,0.7817,-0.3267,0.4385,100.30,-23.05,-31.83
399,2145952629,0.7583,-0.3198,0.4380,102.32,-24.21,-31.34
400,2145957629,0.7720,-0.3145,0.4409,103.48,-25.24,-30.85
401,2145962629,0.7949,-0.3101,0.4331,103.60,-25.91,-30.24
402,2145967628,0.7871,-0.3018,0.4297,102.62,-26.95,-29.88
403,2145972629,0.7729,-0.2954,0.4282,100.30,-27.68,-29.70
404,2145977629,0.7622,-0.2812,0.4312,96.71,-28.29,-29.70
405,2145982629,0.7568,-0.2495,0.4341,92.26,-28.78,-29.70
406,2145987628,0.7549,-0.2183,0.4287,87.99,-29.33,-30.06
407,2145992630,0.7573,-0.1914,0.4160,84.15,-29.57,-30.43
408,2145997628,0.7588,-0.1528,0.3999,81.22,-29.88,-30.61
409,2146002629,0.7559,-0.1289,0.3906,79.39,-30.55,-30.91
410,2146007629,0.7739,-0.1162,0.3696,78.48,-30.85,-30.91
411,2146012629,0.8062,-0.0928,0.3579,77.80,-31.46,-30.61
412,2146017630,0.8159,-0.0815,0.3418,76.95,-32.07,-30.30
413,2146022629,0.8252,-0.0718,0.3208,75.55,-32.80,-29.94
414,2146027629,0.8359,-0.0562,0.3086,73.23,-33.41,-29.63
415,2146032629,0.8716,-0.0420,0.2832,71.04,-33.96,-29.09
416,2146037630,0.8994,-0.0278,0.2637,70.00,-34.57,-28.48
417,2146042629,0.9141,-0.0254,0.2407,70.24,-34.94,-27.44
418,2146047629,0.9233,-0.0015,0.2314,71.40,-35.37,-26.34
419,2146052629,0.9536,0.0225,0.2275,72.56,-35.61,-24.94
420,2146057628,0.9897,0.0327,0.2085,73.60,-35.55,-23.05
421,2146062629,1.0166,0.0596,0.2056,73.66,-35.37,-21.28
422,2146067630,1.0127,0.0820,0.2031,72.01,-34.76,-19.51
423,2146072629,1.0044,0.0996,0.1948,68.66,-34.09,-17.99
424,2146077628,1.0137,0.1035,0.1914,63.84,-33.11,-16.59
425,2146082630,1.0103,0.1045,0.1895,59.15,-32.01,-15.37
426,2146087629,0.9941,0.0952,0.1777,55.79,-30.55,-14.63
427,2146092630,0.9927,0.0884,0.1763,53.84,-28.96,-13.78
428,2146097628,0.9839,0.0859,0.1753,53.35,-27.20,-13.11
429,2146102630,0.9678,0.0820,0.1772,54.45,-25.49,-12.44
430,2146107629,0.9819,0.0903,0.1826,57.99,-23.90,-11.65
431,2146112629,0.9375,0.0737,0.1558,63.96,-22.13,-10.85
432,2146117631,0.9336,0.0928,0.1543,70.67,-20.91,-9.94
433,2146122629,0.9473,0.0977,0.1626,76.34,-19.63,-8.84
434,2146127629,0.9546,0.1187,0.1611,80.00,-18.54,-7.38
435,2146132628,0.9517,0.1362,0.1562,81.40,-17.50,-6.16
436,2146137631,0.9312,0.1548,0.1548,80.43,-16.65,-4.70
437,2146142628,0.9146,0.1836,0.1553,77.56,-16.04,-3.41
438,2146148202,0.8945,0.2363,0.1567,72.44,-15.73,-1.65
439,2146152629,0.8774,0.2773,0.1592,68.11,-15.61,-0.37
440,2146157630,0.8584,0.3301,0.1602,61.89,-15.67,1.46
441,2146162629,0.8325,0.3867,0.1631,54.63,-15.85,3.66
442,2146167628,0.8291,0.4556,0.1646,46.83,-16.10,6.28
443,2146172629,0.7959,0.5171,0.1807,38.96,-16.10,9.57
444,2146177629,0.7739,0.5874,0.1880,32.07,-15.91,13.41
445,2146182630,0.7300,0.6606,0.1948,27.20,-15.85,18.05
446,2146187628,0.6963,0.7412,0.1807,24.39,-15.73,23.54
447,2146192628,0.6343,0.8135,0.1958,23.96,-15.79,29.76
448,2146197720,0.6304,1.0566,0.0381,25.79,-16.04,37.13
449,2146202630,0.6982,0.8081,0.2788,30.49,-16.77,44.51
450,2146207629,0.6519,0.9985,0.2920,35.43,-15.67,54.63
451,2146212629,0.6577,1.1655,0.0874,42.13,-16.28,65.24
452,2146217628,0.6401,1.2617,0.1816,49.82,-16.95,77.32
453,2146222629,0.6421,1.2783,0.2285,58.11,-16.65,90.24
454,2146227631,0.6079,1.2393,0.0732,66.16,-17.68,103.90
455,2146232628,0.6401,1.2363,0.0835,71.65,-19.09,118.23
456,2146237629,0.6836,1.2578,0.1245,72.07,-20.37,132.74
457,2146242629,0.6343,1.2534,0.0576,64.70,-21.95,146.71
458,2146247819,0.5703,1.1743,0.0713,49.94,-23.78,159.57
459,2146252629,0.5518,1.0688,0.1113,30.24,-25.12,171.46
460,2146257630,0.5073,0.9644,0.0708,9.27,-26.83,182.44
461,2146262629,0.4531,0.8945,0.0522,-10.18,-29.15,192.32
462,2146267628,0.4175,0.8003,0.0952,-26.46,-31.46,201.46
463,2146272629,0.4004,0.6982,0.0884,-38.05,-33.96,210.06
464,2146277629,0.3823,0.5762,0.0864,-43.54,-36.28,218.35
465,2146282629,0.3979,0.4521,0.1338,-42.20,-38.23,226.52
466,2146288133,2.1875,-5.7026,-0.4434,-36.71,-40.61,227.26
467,2146292630,3.2793,-7.5093,-1.0298,-52.68,-69.70,138.66
468,2146297629,1.7788,-5.4658,-0.8809,-78.48,-47.87,24.39
469,2146302630,1.8916,-6.9834,-0.4502,-104.63,-28.96,-31.89
470,2146307628,1.5840,-5.0454,-0.3325,-128.23,-22.93,-67.93
471,2146312629,1.3843,-0.6216,-0.2100,-123.05,-21.52,-82.07
472,2146317629,1.1602,1.3105,0.0806,-89.94,-19.02,-82.62
473,2146322630,1.2383,1.0112,0.3613,-43.78,-18.35,-72.38
474,2146327628,1.2158,-0.0342,0.4243,-12.80,-18.41,-57.68
475,2146332629,1.2734,-0.2178,0.3164,5.00,-17.26,-42.50
476,2146337629,1.3037,0.3599,0.2627,13.90,-15.37,-29.45
477,2146342629,1.2979,0.8633,0.2295,17.74,-14.51,-18.35
478,2146347628,1.2661,0.7002,0.2026,19.15,-13.60,-8.54
479,2146352629,1.2393,0.1641,0.2363,19.63,-12.50,0.73
480,2146357629,1.2139,-0.1890,0.2603,20.06,-11.52,8.90
481,2146362629,1.1816,-0.2188,0.2446,21.16,-10.30,14.88
482,2146367628,1.1455,-0.1724,0.2700,24.15,-8.96,18.41
483,2146372629,1.0488,-0.3159,0.3032,30.18,-7.44,19.51
484,2146377629,0.9746,-0.6470,0.3169,40.24,-6.04,18.78
485,2146382629,0.9429,-0.9155,0.3218,53.11,-4.94,15.98
486,2146387628,0.8643,-1.0513,0.3374,66.65,-4.15,11.22
487,2146392629,0.7607,-1.1133,0.3574,77.68,-3.60,4.45
488,2146398027,0.6963,-1.2192,0.3984,83.90,-3.17,-5.79
489,2146402629,0.6885,-1.2598,0.4131,83.72,-2.87,-13.90
490,2146407629,0.6724,-1.3218,0.4150,78.96,-2.87,-24.63
491,2146412629,0.6680,-1.3247,0.4180,70.37,-3.11,-35.98
492,2146417628,0.7021,-1.2881,0.4141,58.35,-3.96,-47.74
493,2146422629,0.7280,-1.2397,0.4238,44.33,-4.76,-59.63
494,2146427629,0.7441,-1.2075,0.4204,30.12,-5.37,-71.22
495,2146432630,0.7646,-1.1602,0.4102,17.20,-6.10,-82.32
496,2146437628,0.7764,-1.1094,0.4004,6.65,-6.83,-92.74
497,2146442629,0.7886,-1.0371,0.3945,-1.34,-7.44,-102.32
498,2146447630,0.8130,-0.9570,0.3735,-7.07,-7.80,-111.04
499,2146452675,0.8105,-0.8618,0.3672,-11.16,-7.68,-118.72
500,2146457843,0.8105,-0.7686,0.3574,-14.02,-7.38,-125.55
501,2146462772,0.8149,-0.6499,0.3354,-15.91,-6.83,-131.40
502,2146467629,0.8208,-0.5317,0.3130,-16.71,-6.16,-136.16
503,2146472629,0.8301,-0.4170,0.2979,-16.71,-5.30,-139.82
504,2146477628,0.8291,-0.2822,0.2749,-16.10,-4.21,-142.32
505,2146482629,0.7925,-0.1597,0.2681,-15.18,-3.11,-143.96
506,2146487629,0.7627,-0.0176,0.2637,-14.63,-1.77,-144.45
507,2146492629,0.7524,0.1382,0.2456,-13.66,-0.37,-143.90
508,2146497628,0.7427,0.2793,0.2261,-12.07,1.10,-142.07
509,2146502630,0.7256,0.4204,0.2129,-10.06,2.32,-138.66
510,2146507629,0.7090,0.5664,0.2119,-7.99,3.84,-133.90
511,2146512629,0.6753,0.7080,0.2144,-6.22,4.76,-127.80
512,2146517628,0.6528,0.8638,0.2280,-4.33,5.91,-120.37
513,2146522630,0.6309,0.9790,0.1953,-2.38,6.89,-111.40
514,2146527629,0.6055,1.1870,0.2446,-0.06,7.56,-100.85
515,2146532629,0.5996,1.3184,0.2324,2.80,7.99,-88.84
516,2146537629,0.5815,1.4414,0.2271,6.28,8.48,-75.24
517,2146542628,0.5605,1.5679,0.2378,10.55,8.78,-60.49
518,2146547629,0.4302,1.7227,0.1274,15.73,8.96,-44.21
519,2146552628,0.6250,1.7222,0.3945,22.68,7.68,-28.17
520,2146558115,0.5122,1.7920,0.2871,29.33,7.32,-5.98
521,2146562629,0.4790,1.9956,0.1367,34.21,7.32,9.09
522,2146567629,0.4082,2.0215,0.2544,40.61,6.04,28.35
523,2146572629,0.4336,2.0439,0.1846,46.95,5.18,48.60
524,2146577628,0.3936,2.0142,0.0781,52.80,4.57,69.15
525,2146582630,0.4019,2.0200,0.1245,57.13,3.11,90.12
526,2146587629,0.3950,2.0200,0.0923,57.32,1.52,110.73
527,2146592629,0.3687,1.9775,0.0474,51.34,0.37,130.67
528,2146597630,0.3359,1.8921,0.0938,38.90,-0.91,149.88
529,2146602629,0.3193,1.7773,0.0908,22.13,-2.26,168.05
530,2146607629,0.2959,1.6514,0.0679,2.93,-3.48,185.30
531,2146612629,0.2642,1.5376,0.0957,-15.85,-5.06,201.34
532,2146617628,0.2471,1.4062,0.1099,-32.44,-6.71,216.59
533,2146622629,0.2334,1.2500,0.1060,-45.61,-8.90,230.55
534,2146627630,0.2432,1.1021,0.1284,-55.00,-10.91,244.15
535,2146632629,0.2700,0.9321,0.1562,-60.49,-12.93,256.95
536,2146637628,0.2993,0.7671,0.1567,-62.32,-14.63,268.90
537,2146642629,0.3003,0.6021,0.1841,-61.10,-16.16,279.94
538,2146647629,0.3169,0.4062,0.2061,-57.44,-17.38,289.82
539,2146652630,0.3262,0.2168,0.2104,-50.98,-17.74,298.35
540,2146657628,0.2954,-0.1968,0.2188,-41.28,-17.56,304.94
541,2146662629,6.3950,-11.5469,-0.8496,-15.00,-22.93,184.88
542,2146667977,-0.1357,-5.9131,-1.2544,-57.93,-10.43,-4.76
543,2146672630,1.3853,-5.9165,1.1230,-62.01,-6.71,-7.87
544,2146677629,1.9248,2.6396,-0.7671,-12.13,11.40,-18.72
545,2146682629,1.1709,3.8135,0.9790,45.37,-4.51,-28.84
546,2146687629,0.6855,0.1675,0.7217,66.52,-5.85,-27.13
547,2146692628,1.0107,-2.9453,-0.2637,59.15,1.16,-17.68
548,2146698019,1.0879,-2.5000,0.1377,46.59,4.63,-10.91
549,2146702629,1.0952,0.7593,0.2925,38.90,4.33,-5.73
550,2146707629,0.9404,1.5244,-0.2891,31.71,7.07,-5.79
551,2146712629,0.9194,0.2695,0.2783,24.82,7.87,-3.72
552,2146717628,0.9551,-1.0503,0.3779,18.54,8.23,0.67
553,2146722629,0.9443,-1.0088,-0.0552,13.72,9.94,4.82
554,2146727629,0.9204,-0.1416,0.1182,10.85,10.67,6.65
555,2146732629,0.9038,0.2876,0.2310,9.02,10.61,6.83
556,2146737675,0.8662,-0.0601,0.0308,6.95,11.28,6.83
557,2146742629,0.8340,-0.5522,0.1357,4.15,11.77,7.44
558,2146747628,0.8071,-0.6484,0.2090,1.16,11.89,7.68
559,2146752629,0.7920,-0.4082,0.0601,-2.07,12.32,7.13
560,2146757629,0.7876,-0.2144,0.0864,-5.79,12.74,5.91
561,2146762643,0.7764,-0.2759,0.1665,-9.94,12.87,4.57
562,2146767628,0.7725,-0.4419,0.1055,-14.02,13.17,3.48
563,2146772629,0.7866,-0.4844,0.1030,-18.11,13.54,2.50
564,2146777629,0.8140,-0.4082,0.1431,-21.52,13.66,1.28
565,2146782629,0.8281,-0.3335,0.1089,-24.94,13.66,-0.06
566,2146787628,0.8320,-0.3228,0.0996,-28.66,13.84,-1.40
567,2146792629,0.8374,-0.3647,0.1367,-32.87,13.96,-2.56
568,2146797630,0.8501,-0.3843,0.1240,-37.50,14.09,-3.90
569,2146802629,0.8486,-0.3608,0.1118,-42.32,14.39,-5.18
570,2146807631,0.8354,-0.3403,0.1177,-48.29,14.63,-6.77
571,2146812629,0.8311,-0.3086,0.1099,-52.44,14.76,-8.05
572,2146817630,0.8335,-0.3154,0.1108,-58.29,15.06,-9.39
573,2146822629,0.8350,-0.3257,0.1138,-64.33,15.30,-10.73
574,2146827628,0.8394,-0.3101,0.1138,-70.24,15.73,-11.83
575,2146832629,0.8315,-0.2954,0.1177,-75.61,16.52,-12.99
576,2146837629,0.8232,-0.2671,0.1299,-79.63,17.26,-14.02
577,2146842630,0.8296,-0.2485,0.1309,-81.89,18.17,-14.82
578,2146847628,0.8579,-0.2354,0.1191,-82.07,19.27,-15.49
579,2146852629,0.8789,-0.2158,0.1260,-80.43,20.12,-15.67
580,2146857629,0.8979,-0.1982,0.1323,-77.62,21.04,-15.49
581,2146862629,0.9326,-0.1782,0.1396,-74.21,21.95,-15.00
582,2146867628,0.9561,-0.1626,0.1494,-71.10,22.99,-14.15
583,2146872629,0.9780,-0.1484,0.1611,-68.54,24.09,-13.23
584,2146877629,0.9795,-0.1299,0.1650,-67.01,25.18,-12.13
585,2146882629,0.9785,-0.1138,0.1616,-66.28,25.91,-10.98
586,2146887628,0.9819,-0.1055,0.1680,-67.38,26.71,-9.82
587,2146892629,0.9907,-0.1006,0.1714,-70.24,27.32,-8.48
588,2146897628,0.9873,-0.0938,0.1787,-75.06,28.17,-7.26
589,2146902921,0.9746,-0.0869,0.1851,-82.62,29.09,-5.85
590,2146907629,0.9702,-0.0820,0.2026,-89.21,29.94,-4.70
591,2146912629,0.9849,-0.0801,0.2090,-94.76,30.67,-3.29
592,2146917629,1.0034,-0.0732,0.2134,-98.35,31.46,-2.01
593,2146922628,0.9922,-0.0688,0.2275,-99.51,32.26,-0.79
594,2146927631,0.9727,-0.0640,0.2373,-98.48,32.93,0.73
595,2146932628,0.9697,-0.0591,0.2510,-95.37,33.48,1.95
596,2146937627,0.9683,-0.0576,0.2729,-90.85,33.96,3.11
597,2146942631,0.9653,-0.0596,0.2852,-85.55,34.33,4.33
598,2146947629,0.9590,-0.0566,0.2983,-80.55,34.51,5.55
599,2146952628,0.9639,-0.0527,0.3091,-76.52,34.57,6.77
600,2146957629,0.9819,-0.0591,0.3237,-74.02,34.51,8.11
601,2146962628,0.9854,-0.0718,0.3452,-73.48,34.45,9.27
602,2146967629,0.9937,-0.0845,0.3618,-74.39,34.45,10.49
603,2146972628,1.0039,-0.0933,0.3701,-75.73,34.39,11.65
604,2146977629,1.0078,-0.1172,0.3838,-77.07,34.09,12.80
605,2146982628,1.0205,-0.1343,0.3916,-77.80,34.02,14.02
606,2146987629,1.0317,-0.1479,0.4058,-77.32,33.96,15.37
607,2146992628,1.0278,-0.1577,0.4292,-75.55,33.72,16.83
608,2146997629,1.0293,-0.1646,0.4473,-72.32,33.48,18.17
609,2147002628,1.0449,-0.1836,0.4668,-67.38,32.99,19.63
610,2147007629,1.0454,-0.1919,0.4883,-61.22,32.74,21.04
611,2147012628,1.0391,-0.2119,0.5093,-53.60,32.26,22.26
612,2147017631,1.0352,-0.2280,0.5327,-45.30,31.46,23.35
613,2147022628,1.0166,-0.2402,0.5454,-37.56,30.55,24.15
614,2147027629,0.9971,-0.2461,0.5684,-31.40,29.57,24.63
615,2147032628,1.0015,-0.2573,0.5869,-27.32,28.17,24.94
616,2147037629,1.0181,-0.2686,0.6045,-25.49,27.01,24.94
617,2147042629,1.0142,-0.2852,0.6182,-25.00,25.43,24.88
618,2147047629,1.0049,-0.2930,0.6206,-25.30,23.84,24.70
619,2147052628,1.0020,-0.2959,0.6304,-25.55,22.01,24.39
620,2147057629,1.0132,-0.3008,0.6333,-25.37,20.30,24.21
621,2147062628,1.0220,-0.3169,0.6357,-24.21,18.41,24.15
622,2147067629,1.0332,-0.3242,0.6411,-22.07,16.65,24.21
623,2147072628,1.0430,-0.3350,0.6470,-19.02,14.51,24.33
624,2147077629,1.0654,-0.3545,0.6406,-15.85,12.62,24.70
625,2147082628,1.0747,-0.3745,0.6406,-12.93,10.55,24.94
626,2147087629,1.0684,-0.3906,0.6372,-10.85,8.60,25.06
627,2147092628,1.0718,-0.4170,0.6309,-9.82,6.46,24.82
628,2147097629,1.0654,-0.4551,0.6255,-9.63,4.39,24.39
629,2147102628,1.0376,-0.4819,0.6196,-10.18,2.44,23.78
630,2147107629,1.0273,-0.5005,0.6118,-11.46,0.24,22.68
631,2147112631,1.0303,-0.5122,0.6133,-13.11,-1.89,21.34
632,2147117628,1.0225,-0.5264,0.6147,-14.82,-3.78,19.88
633,2147122630,1.0083,-0.5498,0.6001,-15.30,-5.67,18.17
634,2147127629,0.9971,-0.5581,0.6025,-14.21,-7.44,16.59
635,2147132629,0.9771,-0.5620,0.6069,-11.10,-9.09,15.00
636,2147137628,0.9824,-0.5654,0.6064,-6.10,-10.61,13.41
637,2147142630,1.0020,-0.5723,0.5962,0.79,-12.07,12.07
638,2147147628,0.9932,-0.5898,0.5742,8.41,-13.60,10.91
639,2147152629,1.0034,-0.6216,0.5410,14.57,-14.88,9.76
640,2147157629,1.0420,-0.6709,0.4946,17.56,-16.52,8.23
641,2147162629,1.0889,-0.8110,0.3564,16.83,-17.74,6.34
642,2147167628,1.2305,-1.0522,-0.0244,12.44,-19.27,3.29
643,2147172629,1.3286,-1.0708,-0.0884,3.78,-19.57,-2.68
644,2147177627,1.1992,-1.0073,0.2202,-9.15,-18.41,-9.82
645,2147182628,1.1484,-0.8569,0.2041,-17.50,-16.89,-15.55
646,2147187629,1.1123,-0.7534,0.2412,-15.43,-16.46,-19.76
647,2147192627,1.0918,-0.6885,0.4043,-6.77,-17.07,-22.99
648,2147197869,1.0718,-0.6509,0.4097,3.05,-17.32,-25.49
649,2147202629,1.0439,-0.5991,0.4043,11.65,-17.32,-27.74
650,2147207629,1.0049,-0.5430,0.4321,19.51,-17.68,-29.45
651,2147212629,0.9746,-0.5195,0.4443,26.10,-18.48,-30.61
652,2147217629,0.9707,-0.4849,0.4536,30.79,-19.15,-31.40
653,2147222627,0.9355,-0.4468,0.4590,32.74,-20.30,-31.83
654,2147227628,0.8867,-0.4019,0.4443,31.77,-21.34,-32.26
655,2147232629,0.8521,-0.3599,0.4185,28.41,-22.68,-32.50
656,2147237628,0.8276,-0.2910,0.3936,23.66,-24.39,-32.68
657,2147242628,0.8130,-0.2241,0.3740,18.54,-26.22,-32.50
658,2147247629,0.8535,-0.1636,0.3579,13.90,-28.05,-31.59
659,2147252628,0.8867,-0.1270,0.3643,10.79,-29.76,-30.12
660,2147257629,0.9087,-0.1250,0.3745,9.94,-31.59,-28.23
661,2147262628,0.9282,-0.1406,0.3896,11.22,-32.99,-25.98
662,2147267630,0.9512,-0.1689,0.3965,15.06,-34.27,-23.72
663,2147272628,0.9570,-0.2280,0.4106,21.22,-35.30,-21.22
664,2147277629,0.9731,-0.2832,0.4248,28.48,-36.10,-19.09
665,2147282628,0.9507,-0.3467,0.4434,35.37,-36.40,-17.13
666,2147287629,0.9175,-0.4253,0.4800,40.55,-36.71,-15.85
667,2147292628,0.9141,-0.5015,0.4761,43.78,-36.77,-15.18
668,2147297627,0.9092,-0.5903,0.4463,45.06,-36.83,-15.24
669,2147302629,0.9175,-0.6606,0.3872,44.27,-36.89,-16.10
670,2147307628,0.9775,-0.7202,0.3042,42.07,-37.07,-17.99
671,2147312629,1.0088,-0.7314,0.1855,39.15,-36.83,-20.49
672,2147317629,1.0044,-0.6777,0.1904,36.10,-36.40,-23.66
673,2147322629,1.0137,-0.6260,0.2280,33.11,-35.67,-26.95
674,2147327632,1.0371,-0.5879,0.2090,31.04,-35.12,-29.57
675,2147332629,1.0337,-0.5513,0.1948,30.55,-35.18,-31.95
676,2147337629,1.0190,-0.5269,0.2114,29.76,-35.18,-34.21
677,2147342785,0.9907,-0.4966,0.2339,27.99,-34.82,-36.46
678,2147347629,1.0186,-0.4844,0.2427,27.20,-34.63,-38.41
679,2147352629,0.9873,-0.4570,0.1992,28.72,-34.39,-39.76
680,2147357629,0.9766,-0.4365,0.2031,31.77,-34.33,-40.91
681,2147362628,0.9858,-0.4019,0.1768,35.30,-34.09,-41.71
682,2147367629,0.9941,-0.3901,0.1436,37.99,-33.90,-42.44
683,2147372629,0.9951,-0.3970,0.0898,39.57,-33.72,-43.11
684,2147377629,0.9961,-0.3984,0.0669,39.70,-33.60,-43.84
685,2147382628,1.0029,-0.4087,0.0498,38.41,-33.23,-44.76
686,2147387629,0.9858,-0.4233,0.0454,35.67,-32.56,-45.85
687,2147392629,0.9766,-0.4385,0.0474,31.83,-31.89,-47.32
688,2147397629,0.9497,-0.4409,0.0610,27.20,-30.98,-48.96
689,2147402628,0.9302,-0.4346,0.0659,22.32,-29.63,-50.73
690,2147407629,0.8955,-0.4238,0.0747,17.99,-28.05,-52.62
691,2147412629,0.8633,-0.3916,0.0693,14.63,-26.46,-54.09
692,2147417629,0.8608,-0.3457,0.0718,12.32,-25.00,-55.24
693,2147422629,0.8613,-0.2993,0.0757,11.16,-23.17,-55.98
694,2147427628,0.8550,-0.2788,0.0840,11.16,-21.28,-56.28
695,2147432629,0.8691,-0.2583,0.0884,12.74,-19.27,-56.16
696,2147437628,0.8828,-0.2358,0.0928,16.28,-17.20,-55.37
697,2147442627,0.9116,-0.2173,0.0923,21.22,-14.88,-54.15
698,2147447629,0.9399,-0.2070,0.0908,26.40,-12.80,-52.38
699,2147452629,0.9492,-0.1992,0.0874,30.91,-10.98,-50.43
700,2147457629,0.9668,-0.2080,0.0649,33.54,-9.57,-48.35
701,2147462628,0.9707,-0.1831,0.0596,33.48,-8.35,-46.40
702,2147467629,0.9287,-0.1968,0.0527,30.49,-7.50,-44.76
703,2147472629,0.9507,-0.1973,0.0474,26.83,-6.52,-43.05
704,2147477629,0.9438,-0.1987,0.0522,23.78,-5.85,-41.52
705,2147482628,0.9346,-0.2095,0.0815,22.20,-4.94,-40.00
706,2147487629,0.9355,-0.2246,0.1094,22.20,-4.33,-38.66
707,2147492629,0.9229,-0.2324,0.1265,23.54,-3.29,-37.44
708,2147497629,0.9141,-0.2427,0.1279,25.91,-2.38,-36.59
709,2147502628,0.9053,-0.2456,0.1440,28.48,-1.65,-35.85
710,2147507629,0.8965,-0.2612,0.1528,30.98,-0.79,-35.37
711,2147512629,0.9097,-0.2739,0.1636,32.93,0.00,-35.00
712,2147517630,0.8970,-0.2803,0.1636,34.33,0.67,-34.82
713,2147522628,0.9009,-0.2861,0.1631,35.12,1.52,-34.94
714,2147527629,0.9062,-0.2900,0.1641,35.49,2.07,-35.00
715,2147532629,0.9053,-0.2900,0.1606,35.98,2.50,-35.24
716,2147537629,0.9028,-0.2852,0.1567,36.89,2.93,-35.43
717,2147542628,0.8906,-0.2720,0.1548,38.35,2.93,-35.61
718,2147547629,0.8916,-0.2690,0.1675,40.43,2.93,-35.85
719,2147552974,0.8838,-0.2607,0.1782,42.80,2.87,-35.91
720,2147557629,0.8838,-0.2549,0.1826,45.18,2.74,-35.91
721,2147562629,0.8984,-0.2427,0.1855,47.20,2.56,-35.55
722,2147567629,0.9038,-0.2383,0.1890,48.66,2.38,-35.24
723,2147572628,0.9146,-0.2256,0.2119,49.09,1.77,-34.63
724,2147577630,0.9243,-0.2241,0.2290,47.74,1.34,-34.02
725,2147582629,0.9316,-0.2158,0.2354,45.06,0.79,-33.17
726,2147587629,0.9326,-0.2109,0.2402,42.44,0.12,-32.38
727,2147592628,0.9287,-0.2012,0.2490,40.79,-0.43,-31.59
728,2147597630,0.9180,-0.1997,0.2549,40.49,-1.16,-30.73
729,2147602629,0.9189,-0.1929,0.2598,41.59,-1.46,-30.00
730,2147607629,0.9155,-0.1880,0.2671,43.90,-2.07,-29.09
731,2147612630,0.9023,-0.1836,0.2671,46.65,-2.68,-28.23
732,2147617629,0.8877,-0.1772,0.2793,49.39,-3.17,-27.38
733,2147622629,0.8823,-0.1621,0.2871,51.40,-3.84,-26.71
734,2147627724,0.8726,-0.1528,0.2954,52.74,-4.76,-25.91
735,2147632628,0.8613,-0.1372,0.2959,53.11,-5.49,-25.12
736,2147637629,0.8540,-0.1206,0.3066,53.11,-6.46,-24.15
737,2147642630,0.8516,-0.1172,0.3081,52.99,-7.50,-23.23
738,2147647730,0.8511,-0.1040,0.3164,53.66,-8.66,-22.13
739,2147652629,0.8442,-0.1025,0.3164,55.43,-10.00,-20.85
740,2147657628,0.8452,-0.0967,0.3193,58.29,-11.16,-19.45
741,2147662629,0.8447,-0.0913,0.3193,61.22,-12.38,-17.99
742,2147667629,0.8501,-0.0869,0.3130,63.72,-13.84,-16.28
743,2147672629,0.8442,-0.0894,0.3159,65.79,-15.06,-14.51
744,2147677628,0.8433,-0.0884,0.2964,67.56,-16.28,-12.68
745,2147682629,0.8394,-0.0771,0.2905,68.90,-17.50,-10.98
746,2147687628,0.8379,-0.0718,0.2852,70.06,-18.84,-9.21
747,2147693163,0.8345,-0.0728,0.2773,70.67,-20.12,-7.44
748,2147697629,0.8350,-0.0718,0.2666,70.43,-21.16,-6.22
749,2147702628,0.8291,-0.0693,0.2524,69.15,-22.26,-4.88
750,2147707628,0.8354,-0.0737,0.2495,67.38,-23.35,-3.72
751,2147712629,0.8413,-0.0811,0.2290,65.79,-24.21,-2.56
752,2147717629,0.8398,-0.0811,0.2183,65.18,-24.94,-1.22
753,2147722629,0.8389,-0.0879,0.2173,65.43,-25.61,-0.06
754,2147727627,0.8462,-0.0874,0.2061,66.46,-25.67,1.28
755,2147732628,0.8467,-0.0879,0.2046,67.50,-25.79,2.26
756,2147737629,0.8545,-0.0967,0.1973,68.35,-26.04,3.54
757,2147742629,0.8525,-0.0977,0.1958,68.90,-25.79,4.51
758,2147747629,0.8540,-0.0889,0.1870,69.63,-25.85,5.61
759,2147752630,0.8589,-0.0947,0.1841,70.98,-25.79,6.59
760,2147757629,0.8643,-0.0977,0.1704,72.26,-26.10,7.74
761,2147762628,0.8779,-0.1069,0.1646,73.72,-26.04,9.02
762,2147767629,0.8823,-0.1099,0.1450,74.51,-25.98,9.88
763,2147772629,0.8843,-0.1187,0.1343,75.00,-25.73,10.73
764,2147777629,0.8789,-0.1230,0.1162,74.88,-25.30,11.46
765,2147782628,0.8711,-0.1353,0.0996,74.09,-24.94,12.01
766,2147787629,0.8735,-0.1392,0.0938,72.62,-24.39,12.56
767,2147792629,0.8716,-0.1533,0.0820,71.52,-23.72,12.93
768,2147797629,0.8691,-0.1631,0.0801,70.43,-23.23,13.17
769,2147802628,0.8740,-0.1743,0.0742,69.76,-22.50,13.35
770,2147807629,0.8779,-0.1875,0.0820,69.02,-22.01,13.48
771,2147812629,0.8833,-0.1997,0.0967,68.41,-21.46,13.23
772,2147817629,0.8984,-0.2095,0.0952,68.23,-21.22,13.05
773,2147822628,0.9165,-0.2139,0.1050,68.05,-21.10,12.99
774,2147827629,0.9331,-0.2139,0.1074,67.44,-21.10,12.87
775,2147832629,0.9341,-0.2100,0.1157,66.95,-21.22,12.87
776,2147837631,0.9414,-0.2148,0.1211,67.13,-21.22,12.74
777,2147842629,0.9458,-0.2046,0.1216,68.11,-21.65,12.74
778,2147847628,0.9385,-0.1943,0.1187,69.33,-21.77,12.87
779,2147852627,0.9331,-0.1929,0.1182,70.55,-22.07,12.99
780,2147857629,0.9302,-0.1875,0.1064,71.16,-22.26,13.23
781,2147862629,0.9321,-0.1875,0.1074,70.85,-22.44,13.41
782,2147867629,0.9238,-0.1831,0.0986,69.63,-22.62,13.54
783,2147872628,0.9243,-0.1851,0.0884,68.23,-22.38,13.72
784,2147877629,0.9307,-0.1855,0.0859,67.13,-22.07,14.02
785,2147882629,0.9277,-0.1777,0.0757,66.46,-21.65,14.33
786,2147887649,0.9316,-0.1807,0.0767,66.22,-21.28,14.70
787,2147892628,0.9409,-0.1885,0.0747,66.16,-20.73,15.12
788,2147897629,0.9434,-0.1958,0.0776,66.22,-20.18,15.55
789,2147902629,0.9565,-0.2031,0.0815,66.16,-19.82,15.98
790,2147907629,0.9565,-0.2056,0.0952,65.49,-19.76,16.22
791,2147912628,0.9565,-0.2173,0.0996,65.00,-19.82,16.52
792,2147917629,0.9624,-0.2124,0.0972,65.18,-20.24,16.46
793,2147922629,0.9526,-0.2104,0.0972,66.28,-20.85,16.40
794,2147927630,0.9585,-0.2109,0.0923,67.62,-21.52,16.28
795,2147932628,0.9673,-0.2036,0.0835,68.78,-22.07,16.22
796,2147937693,0.9619,-0.2007,0.0723,69.70,-22.99,16.04
797,2147942629,0.9692,-0.2139,0.0693,69.39,-23.35,16.04
798,2147947629,0.9663,-0.2148,0.0649,68.48,-23.60,15.73
799,2147952628,0.9600,-0.2217,0.0605,67.44,-23.84,15.43
800,2147957629,0.9570,-0.2227,0.0503,66.77,-24.02,15.06
801,2147962629,0.9482,-0.2246,0.0552,66.52,-23.66,14.88
802,2147967629,0.9458,-0.2285,0.0474,66.46,-23.35,14.45
803,2147972628,0.9487,-0.2217,0.0537,66.83,-22.93,14.21
804,2147977629,0.9565,-0.2192,0.0581,67.13,-22.62,14.02
805,2147982629,0.9590,-0.2158,0.0542,67.26,-22.13,14.09
806,2147987629,0.9614,-0.2080,0.0474,67.80,-21.71,14.15
807,2147992627,0.9683,-0.2051,0.0483,68.41,-21.46,14.51
808,2147997628,0.9731,-0.2021,0.0444,69.27,-21.40,15.12
809,2148002629,0.9707,-0.1987,0.0396,70.30,-21.71,15.43
810,2148007628,0.9756,-0.1982,0.0352,71.22,-21.95,15.98
811,2148012629,1.0537,-0.2056,0.0972,71.22,-22.26,16.22
812,2148017628,0.8979,-0.1953,-0.0205,72.26,-22.62,16.65
813,2148022629,0.9692,-0.2412,-0.0181,74.02,-23.17,16.34
814,2148027628,0.9692,-0.2559,0.0786,72.50,-23.66,16.04
815,2148032629,0.9648,-0.2671,0.0190,68.60,-23.90,15.37
816,2148037629,0.9580,-0.2632,0.0342,66.28,-24.15,14.70
817,2148042629,0.9517,-0.2705,0.0430,66.59,-24.09,14.02
818,2148047628,0.9521,-0.2690,0.0503,67.62,-24.09,13.41
819,2148052629,0.9536,-0.2642,0.0557,68.96,-23.90,12.80
820,2148057627,0.9614,-0.2554,0.0547,69.70,-24.02,12.32
821,2148062629,0.9673,-0.2432,0.0586,69.09,-24.02,12.20
822,2148067628,0.9746,-0.2363,0.0566,67.62,-24.27,12.38
823,2148072629,0.9727,-0.2285,0.0635,66.22,-24.57,12.44
824,2148077628,0.9819,-0.2241,0.0620,65.24,-25.24,12.74
825,2148082629,0.9834,-0.2349,0.0635,64.88,-26.04,12.99
826,2148087628,0.9727,-0.2427,0.0620,64.94,-26.95,13.11
827,2148092707,0.9609,-0.2490,0.0605,65.00,-27.99,13.17
828,2148097628,0.9497,-0.2505,0.0444,64.94,-28.72,13.05
829,2148102629,0.9385,-0.2544,0.0293,64.70,-29.51,12.80
830,2148107628,0.9385,-0.2539,0.0259,64.39,-30.06,12.56
831,2148112629,0.9326,-0.2529,0.0098,63.90,-30.37,12.38
832,2148117628,0.9307,-0.2490,0.0059,63.41,-30.49,12.32
833,2148122631,0.9404,-0.2441,0.0020,62.26,-30.24,12.56
834,2148127628,0.9414,-0.2402,0.0034,60.61,-29.82,12.50
835,2148132629,0.9497,-0.2363,0.0117,59.63,-29.51,12.56
836,2148137631,0.9668,-0.2354,0.0103,60.18,-28.84,12.99
837,2148142628,0.9736,-0.2354,0.0098,61.59,-28.41,13.54
838,2148147629,0.9717,-0.2363,0.0137,62.93,-27.74,14.02
839,2148152629,0.9653,-0.2397,0.0195,63.48,-27.32,14.70
840,2148157629,0.9590,-0.2461,0.0127,63.17,-27.07,15.00
841,2148162629,0.9575,-0.2456,-0.0063,62.87,-27.13,15.12
842,2148167628,0.9507,-0.2593,-0.0107,62.93,-27.26,15.18
843,2148172629,0.9409,-0.2705,-0.0220,63.29,-27.44,14.82
844,2148177629,0.9229,-0.2778,-0.0244,63.35,-27.74,14.15
845,2148182629,0.9243,-0.2734,-0.0522,62.80,-27.87,13.23
846,2148187628,0.9160,-0.2817,-0.0498,62.80,-28.05,12.32
847,2148192629,0.9082,-0.2852,-0.0625,62.74,-28.11,11.16
848,2148197630,0.9028,-0.2803,-0.0723,62.13,-27.80,10.61
849,2148202629,0.9014,-0.2710,-0.0796,60.98,-27.44,9.88
850,2148207628,0.9062,-0.2646,-0.0845,60.12,-26.83,9.27
851,2148212629,0.9121,-0.2539,-0.0718,59.45,-25.98,9.09
852,2148217628,0.9141,-0.2466,-0.0581,59.45,-25.06,9.15
853,2148222629,0.9155,-0.2476,-0.0430,60.30,-23.96,9.63
854,2148227628,0.9150,-0.2432,-0.0156,61.52,-22.99,10.49
855,2148232627,0.9121,-0.2422,0.0054,62.50,-22.01,11.40
856,2148237629,0.9185,-0.2368,0.0083,63.29,-21.04,12.68
857,2148242629,0.9185,-0.2354,0.0181,63.66,-20.49,14.21
858,2148247631,0.9131,-0.2256,0.0068,63.17,-20.18,15.91
859,2148252629,0.8921,-0.2183,0.0015,61.71,-20.00,17.38
860,2148257629,0.8687,-0.2148,-0.0020,60.43,-20.00,18.54
861,2148262629,0.8740,-0.2168,-0.0122,59.82,-20.18,19.63
862,2148267628,0.8726,-0.2065,-0.0288,59.82,-20.37,20.61
863,2148272629,0.8643,-0.2075,-0.0386,59.94,-20.55,21.52
864,2148277629,0.8667,-0.2026,-0.0464,60.30,-20.61,22.26
865,2148282629,0.8643,-0.2100,-0.0444,60.61,-20.37,22.80
866,2148287629,0.8682,-0.2070,-0.0459,61.16,-20.12,23.29
867,2148292628,0.8711,-0.2197,-0.0337,62.20,-19.51,23.66
868,2148297629,0.8774,-0.2349,-0.0181,64.02,-19.02,24.15
869,2148302629,0.8813,-0.2437,-0.0059,66.10,-18.54,24.57
870,2148307629,0.8823,-0.2578,0.0107,67.80,-17.87,24.88
871,2148312628,0.8882,-0.2686,0.0288,69.09,-17.50,25.24
872,2148317629,0.8979,-0.2754,0.0527,70.18,-17.13,25.73
873,2148322629,0.8989,-0.2832,0.0654,71.16,-17.20,26.34
874,2148327629,0.8970,-0.2847,0.0815,72.26,-17.26,27.13
875,2148332628,0.8965,-0.2788,0.0981,73.29,-17.74,28.11
876,2148337630,0.9043,-0.2773,0.1016,73.84,-18.54,29.33
877,2148342629,0.8999,-0.2671,0.0952,72.93,-19.51,30.73
878,2148347629,0.8838,-0.2476,0.0889,70.67,-20.67,32.13
879,2148352634,0.8794,-0.2393,0.0713,68.11,-22.13,33.54
880,2148357627,0.8716,-0.2241,0.0581,66.34,-23.60,35.12
881,2148362627,0.8687,-0.2153,0.0420,65.49,-25.00,36.83
882,2148367627,0.8604,-0.2109,0.0352,65.24,-26.28,38.48
883,2148372627,0.8511,-0.2144,0.0195,66.10,-26.89,40.18
884,2148377627,0.8442,-0.2256,0.0107,67.62,-27.38,41.83
885,2148382628,0.8384,-0.2432,0.0054,69.51,-27.32,43.48
886,2148387627,0.8262,-0.2676,0.0063,71.71,-27.26,45.06
887,2148392710,0.8247,-0.2969,0.0107,74.21,-27.20,46.34
888,2148397629,0.8149,-0.3208,0.0127,76.83,-27.26,47.68
889,2148402627,0.8110,-0.3379,0.0264,78.17,-27.20,48.41
890,2148407627,0.8149,-0.3530,0.0430,79.39,-27.44,49.27
891,2148412631,0.8159,-0.3672,0.0532,80.43,-28.05,50.18
892,2148417628,0.8237,-0.3770,0.0669,81.46,-28.84,51.34
893,2148422629,0.8291,-0.3877,0.0703,82.38,-29.94,52.62
894,2148427628,0.8276,-0.3979,0.0776,82.44,-31.40,54.09
895,2148432629,0.8223,-0.4004,0.0742,81.52,-32.93,55.37
896,2148437628,0.8252,-0.4023,0.0669,80.43,-34.70,56.65
897,2148442631,0.8252,-0.4082,0.0591,78.84,-36.52,58.11
898,2148447628,0.8213,-0.4106,0.0303,76.59,-38.54,59.51
899,2148452629,0.8140,-0.4155,0.0151,74.21,-40.37,60.61
900,2148457629,0.8174,-0.4238,-0.0034,72.07,-42.07,61.59
901,2148462629,0.8223,-0.4189,-0.0181,70.24,-43.35,62.50
902,2148467629,0.8301,-0.4180,-0.0308,68.84,-44.27,63.48
903,2148472629,0.8218,-0.4131,-0.0361,68.35,-45.00,64.39
904,2148477629,0.8188,-0.4058,-0.0400,68.84,-45.67,65.43
905,2148482629,0.8188,-0.4053,-0.0317,70.49,-46.16,66.34
906,2148487628,0.8159,-0.4062,-0.0156,73.23,-46.34,67.20
907,2148492629,0.8066,-0.4209,-0.0083,76.16,-46.77,68.29
908,2148497628,0.7925,-0.4316,-0.0029,77.74,-47.20,69.57
909,2148502627,0.7515,-0.4390,-0.0029,77.38,-48.29,70.55
910,2148507629,0.7456,-0.4448,0.0015,76.71,-49.02,70.79
911,2148512629,0.7485,-0.4536,-0.0063,76.34,-50.18,71.10
912,2148517630,0.7466,-0.4536,-0.0210,76.28,-51.40,71.59
913,2148522627,0.7378,-0.4604,-0.0317,76.22,-52.87,72.01
914,2148527629,0.7314,-0.4619,-0.0322,75.91,-54.51,72.38
915,2148532629,0.7407,-0.4624,-0.0459,76.34,-55.24,72.50
916,2148537629,0.7637,-0.4629,-0.0664,77.50,-55.98,72.99
917,2148542629,0.7617,-0.4517,-0.0796,77.74,-56.16,73.66
918,2148547631,0.7622,-0.4429,-0.0903,77.44,-55.98,74.33
919,2148552628,0.7588,-0.4395,-0.0942,77.68,-55.79,75.06
920,2148557629,0.7651,-0.4497,-0.0894,79.51,-54.88,76.34
921,2148562629,0.7627,-0.4614,-0.0908,81.04,-54.21,77.68
922,2148567629,0.7432,-0.4785,-0.0869,81.34,-53.78,78.84
923,2148572628,0.7358,-0.4976,-0.0664,81.46,-53.23,79.76
924,2148577630,0.7446,-0.5215,-0.0640,82.62,-52.87,80.43
925,2148582628,0.7451,-0.5479,-0.0498,84.33,-52.56,81.40
926,2148587628,0.7261,-0.5562,-0.0332,85.12,-52.44,82.20
927,2148592629,0.7139,-0.5669,-0.0244,85.06,-52.87,82.99
928,2148597745,0.7227,-0.5571,-0.0137,85.12,-53.29,83.60
929,2148602629,0.7227,-0.5532,-0.0132,85.85,-53.72,84.33
930,2148607627,0.7173,-0.5200,-0.0117,87.26,-54.33,85.67
931,2148612627,0.7188,-0.5024,-0.0078,89.15,-54.88,86.10
932,2148617627,0.7114,-0.4731,-0.0186,90.79,-55.49,87.93
933,2148622628,0.7056,-0.4424,-0.0083,91.52,-56.22,90.43
934,2148627629,0.7124,-0.4424,-0.0347,90.73,-56.95,92.93
935,2148632846,0.6997,-0.4531,-0.0557,87.62,-57.93,95.79
936,2148637629,0.6812,-0.4653,-0.0640,81.46,-58.96,98.29
937,2148642628,0.6680,-0.4917,-0.0684,74.82,-60.00,100.37
938,2148647628,0.6562,-0.5244,-0.0654,71.22,-60.73,102.01
939,2148652678,0.6514,-0.5625,-0.0635,72.01,-61.16,103.72
940,2148657895,0.6255,-0.5986,-0.0684,74.70,-61.22,105.30
941,2148662629,0.5996,-0.6260,-0.0742,77.01,-61.46,106.46
942,2148667628,0.5898,-0.6489,-0.0796,78.05,-61.46,107.26
943,2148672627,0.5796,-0.6538,-0.0728,79.51,-61.10,107.80
944,2148677628,0.5708,-0.6509,-0.0601,82.68,-60.61,108.41
945,2148682629,0.5698,-0.6152,-0.0542,88.84,-59.76,109.57
946,2148687628,0.5620,-0.5566,-0.0371,97.13,-58.84,111.28
947,2148692629,0.5742,-0.4922,-0.0176,106.89,-57.74,113.96
948,2148697629,0.5991,-0.4629,-0.0010,117.01,-56.34,118.11
949,2148702629,0.6001,-0.4805,-0.0459,122.13,-55.37,123.41
950,2148707627,0.5073,-0.4917,-0.0654,114.27,-55.79,128.23
951,2148712627,0.4771,-0.5815,-0.0718,96.28,-57.07,131.04
952,2148717628,0.4707,-0.6851,-0.0898,77.26,-58.66,132.74
953,2148723019,0.4443,-0.7725,-0.0981,62.32,-60.73,133.29
954,2148727630,0.4224,-0.8413,-0.0908,52.07,-62.44,132.93
955,2148732629,0.4253,-0.9077,-0.0923,48.35,-63.17,131.46
956,2148737629,0.4453,-0.9634,-0.0957,51.52,-62.99,129.82
957,2148742629,0.4692,-0.9971,-0.0967,59.57,-61.46,127.93
958,2148747638,0.4692,-1.0127,-0.1084,69.57,-59.45,126.10
959,2148752627,0.4731,-1.0063,-0.1201,79.51,-56.77,124.21
960,2148757628,0.4941,-0.9673,-0.1250,88.29,-54.09,122.80
961,2148762631,0.5215,-0.8965,-0.1299,96.40,-51.10,122.20
962,2148767628,0.5303,-0.7915,-0.1113,104.70,-48.11,122.87
963,2148772627,0.5444,-0.6997,-0.0967,113.84,-45.30,125.18
964,2148777631,0.5513,-0.6372,-0.0884,122.07,-42.50,128.96
965,2148782628,0.5239,-0.5991,-0.0884,125.61,-40.24,133.78
966,2148787627,0.4858,-0.6274,-0.0859,119.88,-38.96,138.66
967,2148792627,0.4385,-0.6992,-0.0840,103.23,-39.09,142.13
968,2148797627,0.3799,-0.7852,-0.0630,79.09,-39.94,143.54
969,2148802629,0.3701,-0.8931,-0.0356,56.59,-41.77,143.23
970,2148807629,0.3560,-0.9683,-0.0161,42.50,-43.48,142.20
971,2148812908,0.3433,-1.0220,0.0010,37.80,-44.39,140.61
972,2148817630,0.3530,-1.0562,0.0029,40.98,-44.57,138.84
973,2148822628,0.3730,-1.0718,0.0044,48.72,-43.66,137.26
974,2148827629,0.3779,-1.0732,-0.0024,57.99,-41.65,135.79
975,2148832629,0.3691,-1.0601,-0.0107,67.13,-39.33,134.39
976,2148837627,0.3594,-1.0234,-0.0186,75.91,-36.83,133.60
977,2148842628,0.3589,-0.9692,-0.0195,85.18,-34.15,133.66
978,2148847630,0.3501,-0.9053,0.0103,94.94,-31.89,134.82
979,2148852629,0.3345,-0.8320,0.0215,104.45,-29.45,137.13
980,2148857629,0.3203,-0.7544,0.0444,112.56,-27.20,140.37
981,2148862629,0.3042,-0.7227,0.0620,117.68,-25.37,144.88
982,2148867628,0.2646,-0.7422,0.0620,115.30,-24.21,149.45
983,2148872629,0.1802,-0.7871,0.0625,101.65,-24.70,152.87
984,2148877627,0.1294,-0.8926,0.0869,79.21,-26.71,153.84
985,2148882629,0.1167,-0.9883,0.1216,54.57,-29.76,153.11
986,2148887629,0.1079,-1.0693,0.1582,35.12,-33.17,151.28
987,2148892627,0.1099,-1.1377,0.1816,25.67,-36.46,149.09
988,2148897629,0.0938,-1.1899,0.2100,26.22,-38.84,146.65
989,2148902629,0.0850,-1.2368,0.2285,32.80,-40.18,143.96
990,2148907628,0.0811,-1.2632,0.2236,42.44,-40.49,141.10
991,2148912627,0.0620,-1.2705,0.2012,53.29,-40.43,138.17
992,2148917627,0.0400,-1.2373,0.1616,63.05,-39.94,135.37
993,2148922627,0.0449,-1.1787,0.1333,69.57,-38.90,133.11
994,2148927627,0.0576,-1.1040,0.1001,73.11,-37.32,131.65
995,2148932627,0.0605,-1.0117,0.0659,76.46,-35.18,131.28
996,2148937627,0.0737,-0.9038,0.0400,81.04,-32.74,132.56
997,2148942627,0.0684,-0.8140,0.0073,86.59,-29.45,135.18
998,2148947627,0.0728,-0.7666,-0.0010,91.04,-25.91,139.09
999,2148952627,0.0386,-0.7510,-0.0352,87.87,-22.80,143.05
1000,2148957627,-0.0171,-0.7778,-0.0293,75.06,-20.61,145.55
1001,2148962627,-0.0200,-0.8496,-0.0176,58.17,-18.96,146.77
1002,2148967627,0.0020,-0.9263,0.0371,44.33,-17.56,147.32
1003,2148972976,-0.0205,-1.0063,0.0986,37.32,-16.28,147.20
1004,2148977765,-0.0488,-1.0938,0.1689,37.68,-15.30,146.34
1005,2148982628,-0.0791,-1.1694,0.2324,42.62,-14.45,145.00
1006,2148987627,-0.1172,-1.2295,0.2734,49.21,-13.54,142.74
1007,2148992629,-0.1426,-1.2676,0.3096,55.91,-12.99,140.12
1008,2148997629,-0.1602,-1.2852,0.3340,61.40,-12.44,137.07
1009,2149002902,-0.1689,-1.2856,0.3447,65.49,-11.83,133.90
1010,2149007629,-0.1685,-1.2642,0.3340,68.90,-11.40,131.04
1011,2149012745,-0.1577,-1.1997,0.3218,73.23,-10.37,128.29
1012,2149017629,-0.1499,-1.1426,0.2998,76.89,-9.45,127.07
1013,2149022628,-0.1367,-1.0679,0.2559,81.52,-7.50,126.46
1014,2149027628,-0.1289,-1.0083,0.2261,83.90,-5.30,126.52
1015,2149032629,-0.1284,-1.0049,0.2114,82.50,-2.99,126.40
1016,2149037628,-0.1519,-1.0269,0.2148,77.93,-1.16,125.67
1017,2149042629,-0.1626,-1.0620,0.2246,71.89,0.37,124.33
1018,2149047629,-0.1592,-1.1069,0.2583,66.34,1.22,122.50
1019,2149052629,-0.1431,-1.1387,0.2905,61.59,2.07,120.12
1020,2149057629,-0.1548,-1.1748,0.3350,58.11,2.93,117.50
1021,2149062627,-0.1680,-1.2168,0.3755,57.26,3.84,114.57
1022,2149068061,-0.1738,-1.2603,0.4224,58.84,4.63,111.52
1023,2149072629,-0.1875,-1.2998,0.4492,61.89,4.94,108.05
1024,2149077629,-0.2036,-1.3184,0.4648,64.39,5.18,104.15
1025,2149082630,-0.2095,-1.3262,0.4595,64.88,5.12,99.88
1026,2149087627,-0.2075,-1.3169,0.4409,63.54,5.00,95.43
1027,2149092660,-0.2012,-1.3018,0.4194,61.89,5.12,91.10
1028,2149097699,-0.1997,-1.2666,0.3877,61.46,5.67,87.56
1029,2149102627,-0.2104,-1.2402,0.3481,62.68,6.59,83.84
1030,2149107627,-0.2163,-1.2041,0.3345,64.27,7.87,80.79
1031,2149112627,-0.2285,-1.1738,0.3120,65.24,9.57,77.99
1032,2149117627,-0.2290,-1.1401,0.3145,65.79,11.83,75.37
1033,2149122630,-0.2070,-1.1182,0.3145,67.38,14.27,72.99
1034,2149127627,-0.1895,-1.1138,0.3105,70.18,17.07,71.04
1035,2149132627,-0.1860,-1.1157,0.3193,72.74,20.12,69.21
1036,2149137627,-0.1768,-1.1250,0.3179,74.27,23.17,67.32
1037,2149142628,-0.1606,-1.1377,0.3110,74.39,25.98,65.12
1038,2149147629,-0.1406,-1.1562,0.3384,72.99,28.66,62.62
1039,2149152628,-0.1445,-1.1865,0.3525,70.30,31.04,59.57
1040,2149157629,-0.1514,-1.2026,0.3428,67.44,32.80,56.28
1041,2149162628,-0.1489,-1.2148,0.3491,64.02,34.21,52.56
1042,2149167629,-0.1611,-1.2256,0.3638,59.39,35.61,48.54
1043,2149172627,-0.1685,-1.2471,0.3809,54.94,36.89,44.45
1044,2149177631,-0.1846,-1.2485,0.3853,52.80,37.93,40.30
1045,2149182628,-0.2217,-1.2505,0.3740,53.54,38.78,36.10
1046,2149187630,-0.2881,-1.2554,0.3955,55.43,39.63,31.83
1047,2149192627,-0.3442,-1.2729,0.4014,57.26,40.61,27.62
1048,2149197635,-0.3535,-1.2695,0.4048,59.63,41.28,23.60
1049,2149202628,-0.3296,-1.2700,0.4160,62.20,42.20,19.57
1050,2149207629,-0.2642,-1.2397,0.4160,64.70,43.29,16.34
1051,2149212628,-0.2446,-1.2158,0.3911,67.13,44.63,13.35
1052,2149217629,-0.2109,-1.1538,0.3550,68.29,46.22,10.79
1053,2149222628,-0.2222,-1.1313,0.3135,65.30,47.93,8.29
1054,2149227629,-0.2236,-1.0967,0.2915,57.99,50.00,5.79
1055,2149232629,-0.2212,-1.0894,0.2651,49.45,51.83,3.54
1056,2149237627,-0.2437,-1.0884,0.2505,42.26,53.48,1.40
1057,2149242627,-0.2441,-1.0791,0.2656,37.13,55.49,-0.67
1058,2149247629,-0.2505,-1.0708,0.2720,34.63,57.44,-2.38
1059,2149252629,-0.2656,-1.0620,0.2954,34.02,59.63,-4.02
1060,2149257628,-0.2769,-1.0630,0.2944,36.22,62.07,-5.43
1061,2149262629,-0.2983,-1.0654,0.2769,40.73,64.45,-6.65
1062,2149267629,-0.3223,-1.0684,0.2627,44.88,67.01,-7.87
1063,2149272629,-0.3428,-1.0640,0.2466,46.65,69.57,-9.15
1064,2149277629,-0.3438,-1.0566,0.2314,45.73,72.13,-10.18
1065,2149282628,-0.3389,-1.0405,0.2339,42.99,74.88,-11.16
1066,2149287627,-0.3325,-1.0259,0.2476,39.45,77.68,-11.71
1067,2149292629,-0.3281,-1.0117,0.2651,36.59,80.37,-11.89
1068,2149297629,-0.3276,-1.0063,0.3018,34.70,83.41,-12.01
1069,2149302628,-0.3398,-1.0112,0.3242,33.96,85.30,-11.95
1070,2149307631,-0.3525,-1.0298,0.3584,33.72,86.89,-12.13
1071,2149312628,-0.3716,-1.0435,0.3872,32.93,86.04,-12.50
1072,2149317630,-0.3857,-1.0566,0.4141,29.82,87.62,-13.54
1073,2149322628,-0.3794,-1.0508,0.4395,24.27,86.28,-14.88
1074,2149327629,-0.3848,-1.0503,0.4463,18.48,87.38,-16.28
1075,2149332628,-0.3945,-1.0449,0.4551,14.57,85.85,-17.56
1076,2149337630,-0.4185,-1.0444,0.4492,13.41,85.55,-18.60
1077,2149342628,-0.4390,-1.0210,0.4326,14.39,85.79,-19.21
1078,2149347629,-0.4507,-1.0029,0.4170,16.52,87.56,-19.76
1079,2149352628,-0.4546,-0.9790,0.4146,18.11,87.99,-20.00
1080,2149357627,-0.4502,-0.9673,0.4087,18.17,88.84,-20.43
1081,2149362631,-0.4429,-0.9707,0.3838,16.59,89.57,-20.61
1082,2149367913,-0.4575,-0.9688,0.3740,14.02,90.37,-20.73
1083,2149372629,-0.4619,-0.9507,0.3589,10.49,91.22,-20.79
1084,2149377629,-0.4565,-0.9409,0.3643,6.46,92.50,-20.73
1085,2149382629,-0.4570,-0.9360,0.3696,3.35,93.78,-20.55
1086,2149387627,-0.4673,-0.9399,0.3638,2.38,95.49,-20.24
1087,2149392627,-0.4839,-0.9409,0.3809,2.93,96.95,-20.00
1088,2149397629,-0.4985,-0.9385,0.3853,3.84,98.72,-20.00
1089,2149402628,-0.4951,-0.9390,0.3955,4.57,100.12,-19.94
1090,2149407636,-0.5044,-0.9346,0.4316,4.45,101.65,-20.12
1091,2149412628,-0.4971,-0.9277,0.4468,4.57,103.29,-20.30
1092,2149417628,-0.4897,-0.9351,0.4551,5.98,104.27,-20.18
1093,2149422627,-0.5015,-0.9390,0.4624,7.13,105.24,-20.00
1094,2149427627,-0.5054,-0.9443,0.4634,6.71,105.85,-19.82
1095,2149432629,-0.4961,-0.9341,0.4595,3.84,105.91,-19.70
1096,2149437628,-0.4849,-0.9399,0.4688,-0.85,105.98,-19.57
1097,2149442628,-0.4712,-0.9453,0.4731,-5.00,105.91,-19.39
1098,2149447629,-0.4863,-0.9551,0.4692,-7.26,105.91,-19.33
1099,2149452628,-0.5151,-0.9600,0.4751,-9.09,105.79,-19.33
1100,2149457629,-0.5459,-0.9473,0.4648,-11.34,105.85,-19.57
1101,2149462628,-0.5601,-0.9209,0.4448,-12.93,106.28,-20.00
1102,2149467629,-0.5571,-0.8906,0.4458,-13.66,106.89,-20.49
1103,2149472628,-0.5737,-0.8774,0.4478,-13.60,107.68,-20.79
1104,2149477629,-0.5854,-0.8721,0.4443,-12.01,108.35,-20.98
1105,2149482629,-0.5918,-0.8804,0.4497,-9.57,109.57,-20.98
1106,2149487628,-0.5967,-0.8906,0.4536,-6.83,110.49,-20.67
1107,2149492629,-0.5747,-0.8921,0.4468,-4.21,111.71,-20.18
1108,2149497629,-0.5522,-0.8872,0.4443,-2.56,112.68,-19.57
1109,2149502629,-0.5435,-0.8770,0.4463,-2.62,113.54,-18.90
1110,2149507629,-0.5352,-0.8765,0.4336,-4.63,114.76,-18.29
1111,2149512629,-0.5342,-0.8662,0.4277,-6.71,115.67,-17.62
1112,2149517628,-0.5337,-0.8589,0.4136,-8.66,116.83,-16.71
1113,2149522629,-0.5420,-0.8491,0.4077,-10.79,118.05,-15.67
1114,2149527981,-0.5518,-0.8364,0.4028,-13.78,119.51,-14.33
1115,2149532629,-0.5601,-0.8369,0.4111,-15.18,120.37,-13.66
1116,2149537629,-0.5693,-0.8389,0.4146,-15.55,121.83,-12.80
1117,2149542629,-0.5825,-0.8423,0.4194,-14.57,122.87,-12.07
1118,2149547752,-0.6025,-0.8555,0.4414,-12.26,124.15,-11.34
1119,2149552629,-0.6284,-0.8721,0.4438,-9.57,125.37,-11.04
1120,2149557629,-0.6475,-0.8828,0.4468,-6.22,126.22,-10.98
1121,2149562630,-0.6611,-0.8940,0.4546,-3.35,127.01,-11.28
1122,2149567627,-0.6685,-0.9048,0.4858,-2.38,127.56,-11.71
1123,2149572627,-0.6650,-0.9297,0.5171,-3.29,127.74,-12.50
1124,2149577627,-0.6602,-0.9648,0.5391,-4.70,127.26,-13.41
1125,2149582628,-0.6504,-0.9932,0.5542,-6.10,126.28,-14.51
1126,2149587630,-0.6284,-0.9985,0.5498,-7.50,125.49,-15.49
1127,2149592628,-0.6235,-0.9893,0.5254,-8.66,124.63,-16.28
1128,2149597628,-0.6250,-0.9766,0.4990,-10.49,124.21,-17.01
1129,2149602629,-0.6392,-0.9580,0.4629,-12.38,124.09,-17.50
1130,2149607629,-0.6533,-0.9404,0.4204,-13.72,124.39,-17.93
1131,2149612628,-0.6763,-0.9258,0.3823,-13.96,125.18,-18.41
1132,2149617629,-0.7046,-0.9048,0.3496,-13.35,126.40,-18.54
1133,2149622628,-0.7168,-0.8677,0.3379,-12.93,127.99,-18.78
1134,2149627629,-0.7295,-0.8315,0.3267,-12.56,129.88,-18.84
1135,2149632628,-0.7417,-0.8164,0.3267,-11.34,132.13,-18.84
1136,2149637627,-0.7485,-0.8184,0.3354,-8.72,134.33,-18.60
1137,2149642629,-0.7500,-0.8267,0.3301,-5.30,136.28,-18.05
1138,2149647628,-0.7446,-0.8311,0.3462,-1.89,138.29,-17.62
1139,2149652627,-0.7485,-0.8491,0.3452,0.67,140.12,-17.20
1140,2149657627,-0.7651,-0.8813,0.3555,3.17,142.44,-16.52
1141,2149662629,-0.7744,-0.9048,0.3452,4.88,143.84,-16.40
1142,2149668177,-0.7671,-0.9131,0.3105,6.40,145.55,-15.67
1143,2149672629,-0.7661,-0.9111,0.2954,5.43,146.77,-15.24
1144,2149677629,-0.7666,-0.8994,0.2710,1.34,148.48,-14.94
1145,2149682629,-0.7749,-0.8906,0.2466,-3.72,150.24,-14.51
1146,2149687628,-0.7939,-0.8755,0.2256,-7.44,152.44,-13.96
1147,2149692629,-0.8071,-0.8604,0.2163,-9.76,154.76,-13.11
1148,2149697629,-0.8325,-0.8511,0.2192,-11.16,157.50,-12.32
1149,2149702629,-0.8486,-0.8467,0.2344,-11.71,160.24,-11.59
1150,2149707627,-0.8535,-0.8511,0.2554,-11.10,162.99,-10.98
1151,2149712628,-0.8745,-0.8599,0.2954,-9.63,165.37,-10.55
1152,2149717629,-0.9058,-0.8833,0.3301,-7.50,167.68,-10.24
1153,2149722628,-0.9321,-0.9023,0.3433,-3.84,169.33,-10.37
1154,2149727630,-0.9565,-0.9302,0.3706,0.98,170.98,-10.61
1155,2149732628,-0.9629,-0.9507,0.3784,5.85,171.89,-10.79
1156,2149737629,-0.9761,-0.9712,0.3770,10.06,172.68,-11.28
1157,2149742628,-0.9995,-1.0103,0.3765,13.17,173.35,-11.83
1158,2149747629,-1.0234,-1.0483,0.3711,15.06,173.72,-12.74
1159,2149752628,-1.0371,-1.0884,0.3511,15.98,173.84,-13.72
1160,2149757629,-1.0454,-1.1221,0.3413,15.85,173.78,-14.88
1161,2149762628,-1.0376,-1.1372,0.3149,14.33,173.78,-16.10
1162,2149767629,-1.0278,-1.1567,0.2949,11.40,173.96,-17.32
1163,2149772627,-1.0059,-1.1577,0.2671,6.10,174.70,-18.66
1164,2149777627,-0.9917,-1.1538,0.2310,-0.43,175.67,-19.70
1165,2149782629,-0.9658,-1.1450,0.1987,-7.20,177.26,-20.24
1166,2149787628,-0.9473,-1.1260,0.1738,-13.60,179.33,-20.61
1167,2149792629,-0.9502,-1.1030,0.1562,-19.33,182.01,-20.73
1168,2149797627,-0.9580,-1.0903,0.1543,-24.21,185.24,-20.73
1169,2149802629,-0.9805,-1.0771,0.1533,-27.13,188.90,-20.85
1170,2149807627,-0.9971,-1.0806,0.1431,-27.32,192.80,-20.91
1171,2149812629,-1.0132,-1.0894,0.1431,-25.43,196.95,-21.04
1172,2149817629,-1.0229,-1.0938,0.1328,-22.74,201.16,-20.98
1173,2149822629,-1.0308,-1.0908,0.1255,-20.24,205.79,-21.10
1174,2149827628,-1.0312,-1.1006,0.1333,-17.62,210.49,-21.28
1175,2149832629,-1.0322,-1.1235,0.1387,-14.39,215.00,-21.46
1176,2149837628,-1.0376,-1.1714,0.1641,-9.09,220.37,-21.95
1177,2149842629,-1.0547,-1.2070,0.1646,-4.88,223.66,-22.38
1178,2149847629,-1.0825,-1.2573,0.1675,0.18,227.26,-23.29
1179,2149852629,-1.0933,-1.3096,0.1675,3.41,230.43,-24.63
1180,2149857628,-1.0967,-1.3564,0.1680,4.02,233.35,-26.52
1181,2149862629,-1.0942,-1.4004,0.1787,1.71,235.91,-28.96
1182,2149867629,-1.0864,-1.4551,0.1914,-2.50,238.29,-31.77
1183,2149872629,-1.0957,-1.5151,0.1943,-8.11,240.24,-34.88
1184,2149877628,-1.1558,-1.5757,0.1899,-14.45,241.52,-38.29
1185,2149882629,-1.1680,-1.6572,0.2515,-20.79,242.87,-42.20
1186,2149887629,-1.1641,-1.6582,0.1895,-27.07,244.57,-46.28
1187,2149892629,-1.1787,-1.6831,0.2305,-33.90,245.49,-50.85
1188,2149897629,-1.1953,-1.7168,0.2456,-41.22,246.59,-55.61
1189,2149902630,-1.2036,-1.7383,0.2471,-47.80,248.11,-60.49
1190,2149907627,-1.2007,-1.7402,0.2505,-52.20,249.57,-65.55
1191,2149912628,-1.1997,-1.7256,0.2378,-55.00,251.65,-70.43
1192,2149917629,-1.2036,-1.7085,0.2251,-57.07,254.51,-75.24
1193,2149922628,-1.2197,-1.6938,0.2095,-58.48,257.80,-79.82
1194,2149927629,-1.2412,-1.6978,0.1685,-58.54,261.77,-83.90
1195,2149932628,-1.2749,-1.6899,0.1377,-57.26,266.16,-87.87
1196,2149937627,-1.3057,-1.7202,0.0884,-55.24,271.16,-91.65
1197,2149942629,-1.3086,-1.7593,0.0767,-54.45,276.04,-95.61
1198,2149947734,-1.3311,-1.8135,0.0547,-56.89,282.50,-101.04
1199,2149952629,-1.3428,-1.8535,0.0508,-60.49,286.95,-104.82
1200,2149957627,-1.3535,-1.8882,0.0273,-66.83,292.50,-109.70
1201,2149962628,-1.3569,-1.9048,0.0073,-75.06,297.56,-115.00
1202,2149967629,-1.3311,-1.9214,0.0088,-85.06,302.68,-120.12
1203,2149972629,-1.3350,-1.9355,0.0156,-96.95,307.87,-125.49
1204,2149977629,-1.3447,-1.9292,0.0254,-110.18,312.99,-130.37
1205,2149982629,-1.3560,-1.9224,0.0459,-123.48,318.60,-135.00
1206,2149987630,-1.3633,-1.9297,0.0928,-135.98,324.27,-139.09
1207,2149992629,-1.3726,-1.9351,0.1543,-146.77,329.94,-142.68
1208,2149997627,-1.3774,-1.9468,0.2197,-154.63,335.55,-146.10
1209,2150002629,-1.4170,-1.9526,0.2764,-158.90,341.16,-149.27
1210,2150007629,-1.4824,-1.9668,0.3252,-158.90,346.28,-152.32
1211,2150012627,-1.5356,-1.9644,0.3652,-155.00,351.40,-155.30
1212,2150017630,-1.5796,-1.9888,0.3989,-146.40,356.89,-159.33
1213,2150022629,-1.6040,-2.0371,0.4248,-137.26,360.85,-163.11
1214,2150027628,-1.6172,-2.0708,0.4336,-130.12,363.23,-166.59
1215,2150032630,-1.6323,-2.1274,0.4409,-123.05,365.37,-172.93
1216,2150037628,-1.6069,-2.1489,0.4385,-122.13,366.16,-177.50
1217,2150042628,-1.4448,-2.1826,0.4219,-126.95,366.71,-184.70
1218,2150047629,-1.3271,-2.2314,0.4360,-136.46,366.95,-190.12
1219,2150053004,-1.2827,-2.2891,0.4419,-151.28,367.38,-194.82
1220,2150057804,-1.2793,-2.3521,0.4438,-170.30,367.68,-198.96
1221,2150062629,-1.2949,-2.3882,0.4629,-192.38,367.44,-202.62
1222,2150068150,-1.3315,-2.4121,0.5371,-217.26,366.89,-205.98
1223,2150072629,-1.3926,-2.4136,0.6479,-244.02,366.16,-209.02
1224,2150078015,-1.4307,-2.4062,0.7422,-268.66,365.30,-211.40
1225,2150082629,-1.4609,-2.4243,0.8325,-287.07,364.51,-213.11
1226,2150087628,-1.4731,-2.4385,0.9116,-296.65,363.72,-214.27
1227,2150092629,-1.4600,-2.4312,0.9575,-297.56,362.80,-215.24
1228,2150097629,-1.4546,-2.4268,0.9780,-293.05,362.20,-216.10
1229,2150102629,-1.4199,-2.3511,0.9751,-285.12,362.13,-217.38
1230,2150107628,-1.3657,-2.3564,0.9326,-275.49,362.32,-219.21
1231,2150112629,-1.2524,-2.3706,0.9268,-264.82,362.50,-221.16
1232,2150117629,-1.1182,-2.3774,0.9224,-255.00,362.38,-224.02
1233,2150122630,-1.0356,-2.4126,0.9482,-248.60,362.20,-227.68
1234,2150127627,-1.0020,-2.4497,0.9644,-246.65,361.95,-232.13
1235,2150132629,-0.9546,-2.4834,1.0029,-249.45,361.28,-237.44
1236,2150137629,-0.8984,-2.5176,1.0547,-257.68,360.18,-243.90
1237,2150142629,-0.8530,-2.5425,1.1270,-270.73,358.84,-250.85
1238,2150147627,-0.8428,-2.5767,1.1948,-286.95,357.26,-258.41
1239,2150152627,-0.8330,-2.5918,1.2402,-304.09,355.79,-266.04
1240,2150157627,-0.8408,-2.5952,1.2827,-320.37,354.88,-273.48
1241,2150162627,-0.8799,-2.5913,1.3105,-333.60,354.21,-280.79
1242,2150167627,-0.9282,-2.5820,1.3271,-342.32,354.27,-287.99
1243,2150172627,-1.0078,-2.5527,1.3374,-345.49,354.82,-295.06
1244,2150177627,-1.1084,-2.5210,1.3462,-342.68,355.67,-301.95
1245,2150182627,-1.1538,-2.4937,1.3457,-335.43,356.46,-307.68
1246,2150187627,-1.2129,-2.5005,1.3491,-320.61,357.01,-314.88
1247,2150192635,-1.2231,-2.4229,1.4487,-297.20,356.59,-324.63
1248,2150197627,-1.2163,-2.4170,1.4805,-277.26,355.49,-333.72
1249,2150202627,-1.2012,-2.3999,1.5254,-260.49,353.66,-343.60
1250,2150207627,-1.2192,-2.3853,1.5732,-249.45,351.04,-354.15
1251,2150212627,-1.2251,-2.3623,1.6035,-244.33,347.74,-365.06
1252,2150217627,-1.2144,-2.3452,1.6323,-244.15,344.82,-375.98
1253,2150222627,-1.2251,-2.3252,1.6655,-247.38,342.01,-386.65
1254,2150227627,-1.2407,-2.3057,1.7065,-251.95,339.33,-397.01
1255,2150232627,-1.2441,-2.2983,1.7554,-256.40,336.95,-407.01
1256,2150237627,-1.3223,-2.3096,1.8843,-259.57,334.63,-416.59
1257,2150242627,-1.3457,-2.3003,1.8208,-261.46,332.44,-425.79
1258,2150247627,-1.4336,-2.2671,1.9077,-261.83,329.82,-434.27
1259,2150252627,-1.5596,-2.2471,1.9873,-259.63,326.83,-442.26
1260,2150257627,-1.6387,-2.1904,2.0430,-253.48,323.23,-450.06
1261,2150262627,-1.6924,-2.1230,2.1309,-242.20,318.54,-458.11
1262,2150267627,-1.7261,-2.0391,2.2388,-226.83,312.68,-466.59
1263,2150272627,-1.7583,-1.9321,2.3081,-208.90,305.55,-475.49
1264,2150277627,-1.7998,-1.8262,2.3770,-191.16,297.32,-484.57
1265,2150282627,-1.8501,-1.7344,2.4492,-175.85,287.99,-493.41
1266,2150287627,-1.9072,-1.6479,2.4863,-163.60,277.50,-502.01
1267,2150292627,-1.9653,-1.5713,2.4917,-154.39,265.67,-510.37
1268,2150297627,-2.0200,-1.4927,2.5195,-148.66,254.09,-518.48
1269,2150302627,-2.0923,-1.4058,2.4863,-146.65,242.44,-526.40
1270,2150307627,-2.2036,-1.3247,2.5176,-148.17,231.04,-533.60
1271,2150312627,-2.2646,-1.1953,2.5405,-151.71,220.30,-539.88
1272,2150317627,-2.3120,-1.0459,2.5327,-154.88,210.06,-545.00
1273,2150322627,-2.3740,-0.8672,2.5571,-156.89,200.43,-548.96
1274,2150327627,-2.4326,-0.6836,2.6006,-157.62,190.85,-551.46
1275,2150332627,-2.5015,-0.4810,2.6104,-155.91,180.91,-552.13
1276,2150337627,-2.5786,-0.2886,2.6211,-149.94,170.73,-551.28
1277,2150342627,-2.6133,-0.0737,2.6343,-139.33,160.06,-548.78
1278,2150347627,-2.6553,0.1519,2.6172,-124.70,148.72,-545.00
1279,2150352632,-2.7021,0.3486,2.6084,-107.74,136.71,-540.00
1280,2150357629,-2.7202,0.5273,2.6035,-91.04,124.09,-533.60
1281,2150362628,-2.7412,0.6777,2.5674,-76.04,110.91,-525.85
1282,2150367631,-2.7500,0.8159,2.5195,-63.66,97.20,-516.95
1283,2150372629,-2.7358,0.9351,2.4551,-53.96,83.35,-507.07
1284,2150377628,-2.7036,1.0483,2.3818,-47.50,69.82,-496.22
1285,2150382627,-2.6748,1.1606,2.3286,-45.43,56.59,-484.51
1286,2150387631,-2.6353,1.2729,2.2847,-46.65,44.76,-471.83
1287,2150392628,-2.5698,1.3696,2.2363,-48.29,33.96,-458.11
1288,2150397629,-2.5122,1.4902,2.1699,-46.65,24.39,-443.48
1289,2150402629,-2.4717,1.6357,2.0952,-39.88,15.67,-427.80
1290,2150407628,-2.4502,1.7847,2.0186,-29.94,7.32,-411.22
1291,2150412629,-2.4448,1.9233,1.9438,-18.54,-1.10,-393.60
1292,2150417627,-2.4023,2.0610,1.8481,-6.16,-8.90,-374.82
1293,2150422627,-2.3232,2.1494,1.7446,6.83,-16.59,-354.88
1294,2150427627,-2.2358,2.2256,1.6553,20.12,-23.54,-333.90
1295,2150432627,-2.1665,2.2788,1.5356,32.87,-29.45,-312.26
1296,2150437629,-2.1045,2.2969,1.4238,45.30,-34.02,-290.55
1297,2150442628,-1.9453,2.3398,1.2822,57.56,-37.62,-269.27
1298,2150447713,-1.8477,2.2949,1.1904,68.60,-39.57,-248.11
1299,2150452628,-1.7314,2.2700,1.0894,77.80,-39.76,-227.26
1300,2150457686,-1.6143,2.2681,0.9517,85.61,-39.51,-206.77
1301,2150462629,-1.5151,2.2285,0.8511,90.43,-38.60,-186.77
1302,2150467629,-1.4785,2.1680,0.6943,90.85,-37.44,-166.89
1303,2150472628,-1.4214,2.2134,0.6875,85.24,-35.91,-147.87
1304,2150477926,-1.3335,2.1582,0.6304,76.65,-33.17,-129.88
1305,2150482629,-1.2466,2.1216,0.5757,69.27,-30.18,-112.44
1306,2150487628,-1.1641,2.0776,0.5752,65.00,-27.13,-95.49
1307,2150492629,-1.0654,2.0200,0.5703,64.33,-24.09,-79.09
1308,2150497628,-0.9609,1.9492,0.5698,66.34,-21.46,-62.93
1309,2150502627,-0.8604,1.8657,0.5815,69.09,-18.78,-47.32
1310,2150507629,-0.7603,1.7710,0.5864,71.28,-16.28,-32.80
1311,2150512629,-0.6621,1.6709,0.5884,72.01,-13.78,-19.45
1312,2150517627,-0.5679,1.5615,0.6040,70.79,-11.40,-7.32
1313,2150522629,-0.4736,1.4546,0.6133,68.17,-9.15,3.48
1314,2150528139,-0.3750,1.3169,0.6196,65.00,-7.38,13.23
1315,2150532629,-0.2998,1.1880,0.6260,61.59,-6.34,22.20
1316,2150537628,-0.2417,1.0464,0.6479,57.74,-5.91,30.00
1317,2150542629,-0.2075,0.9126,0.6509,53.35,-6.34,35.91
1318,2150547628,-0.1914,0.7715,0.6587,49.02,-7.01,39.94
1319,2150552629,-0.1895,0.6348,0.6685,44.45,-8.29,42.01
1320,2150557629,-0.1851,0.5063,0.6729,39.70,-9.76,42.26
1321,2150562628,-0.1968,0.3975,0.6768,34.70,-11.83,41.04
1322,2150567627,-0.2085,0.2988,0.6621,30.12,-14.15,38.48
1323,2150572629,-0.2383,0.2153,0.6514,26.16,-16.77,34.63
1324,2150577629,-0.2812,0.1519,0.6372,23.11,-19.39,29.63
1325,2150582629,-0.2998,0.1118,0.6074,20.91,-22.07,23.66
1326,2150587637,-0.2954,0.0771,0.5811,19.51,-24.09,17.01
1327,2150592629,-0.2964,0.0620,0.5557,19.15,-25.85,10.24
1328,2150597629,-0.3013,0.0610,0.5332,19.09,-26.95,3.29
1329,2150602627,-0.2812,0.0674,0.4961,18.78,-27.38,-3.41
1330,2150607718,-0.2671,0.0747,0.4512,18.11,-26.95,-9.94
1331,2150612628,-0.2661,0.1055,0.4082,16.40,-25.91,-16.10
1332,2150617627,-0.2622,0.1411,0.3765,14.27,-24.02,-22.13
1333,2150622629,-0.2505,0.1836,0.3438,12.44,-20.91,-27.74
1334,2150627629,-0.2251,0.2446,0.3218,11.52,-17.01,-32.87
1335,2150632629,-0.2192,0.2944,0.2993,12.20,-12.44,-37.20
1336,2150637629,-0.2275,0.3628,0.2925,13.41,-7.56,-40.73
1337,2150642628,-0.2241,0.4404,0.3047,14.15,-2.68,-43.48
1338,2150647629,-0.2290,0.4995,0.3091,14.02,2.44,-45.43
1339,2150652627,-0.2573,0.5679,0.3130,12.68,7.26,-46.59
1340,2150657629,-0.2817,0.6343,0.3374,10.18,11.77,-47.44
1341,2150662628,-0.3047,0.6997,0.3711,7.32,16.46,-48.05
1342,2150667629,-0.3096,0.7534,0.3936,5.37,20.98,-48.11
1343,2150672629,-0.3262,0.8130,0.4277,5.18,24.94,-47.50
1344,2150677629,-0.3472,0.8540,0.4580,6.89,28.48,-46.40
1345,2150682629,-0.3701,0.9004,0.4995,9.51,31.34,-44.88
1346,2150687627,-0.3667,0.9316,0.5469,12.44,33.84,-43.29
1347,2150692709,-0.3687,0.9551,0.5879,15.37,35.73,-41.71
1348,2150697629,-0.3877,0.9790,0.6357,17.13,36.83,-39.88
1349,2150702641,-0.4053,1.0024,0.6812,18.11,37.44,-38.05
1350,2150707627,-0.4038,1.0220,0.7148,18.29,37.68,-36.16
1351,2150712627,-0.4097,1.0474,0.7456,18.11,37.32,-34.02
1352,2150717629,-0.4248,1.0801,0.7749,17.32,36.46,-31.77
1353,2150722628,-0.4365,1.1128,0.8022,16.10,35.12,-29.33
1354,2150727629,-0.4258,1.1426,0.8257,14.88,33.54,-26.65
1355,2150732627,-0.4189,1.1577,0.8457,13.66,31.46,-23.48
1356,2150737631,-0.4131,1.1738,0.8726,12.44,28.96,-19.82
1357,2150742628,-0.3984,1.1851,0.9014,11.04,26.10,-16.16
1358,2150747627,-0.3735,1.1880,0.9233,9.63,23.05,-12.56
1359,2150752629,-0.3413,1.1860,0.9385,8.90,19.76,-9.02
1360,2150757927,-0.3179,1.1826,0.9424,8.66,16.16,-5.43
1361,2150762629,-0.2896,1.1836,0.9658,8.60,12.74,-1.83
1362,2150767628,-0.2656,1.1787,0.9668,8.72,9.21,1.95
1363,2150772627,-0.2417,1.1665,0.9614,9.21,5.73,5.73
1364,2150777627,-0.2339,1.1479,0.9644,9.76,2.20,9.57
1365,2150782629,-0.2427,1.1201,0.9673,9.82,-1.28,13.05
1366,2150787627,-0.2432,1.0615,0.9482,9.57,-4.88,16.52
1367,2150792627,-0.2622,1.0186,0.9409,8.84,-8.72,19.45
1368,2150797627,-0.3125,0.9756,0.9312,7.74,-12.38,21.71
1369,2150802627,-0.3447,0.9287,0.9048,6.71,-15.67,23.11
1370,2150807628,-0.3647,0.8838,0.8843,6.65,-18.66,23.96
1371,2150812770,-0.3877,0.8442,0.8540,8.05,-21.34,24.21
1372,2150817693,-0.3877,0.8164,0.8301,10.12,-23.54,24.27
1373,2150822628,-0.3911,0.7988,0.7915,11.65,-25.49,24.02
1374,2150827627,-0.3682,0.7754,0.7578,12.44,-26.95,23.66
1375,2150832803,-0.3486,0.7681,0.7212,12.32,-28.05,23.41
1376,2150837749,-0.3247,0.7559,0.6885,11.83,-28.60,23.17
1377,2150842629,-0.2979,0.7363,0.6626,11.10,-28.84,22.68
1378,2150847628,-0.2749,0.7197,0.6318,10.37,-28.60,22.07
1379,2150852629,-0.2534,0.7114,0.5986,9.51,-27.80,21.40
1380,2150857694,-0.2373,0.7119,0.5806,8.96,-26.71,20.55
1381,2150862627,-0.2358,0.7065,0.5513,8.60,-25.37,19.76
1382,2150867627,-0.2310,0.6953,0.5210,8.54,-23.60,18.90
1383,2150872627,-0.2271,0.6904,0.4995,8.90,-21.83,18.17
1384,2150877627,-0.2251,0.6782,0.4858,9.45,-19.70,17.26
1385,2150882627,-0.2314,0.6694,0.4824,10.61,-17.50,16.16
1386,2150887627,-0.2441,0.6538,0.4736,12.38,-15.37,15.00
1387,2150892631,-0.2505,0.6406,0.4741,14.02,-13.11,13.66
1388,2150897629,-0.2559,0.6367,0.4658,14.63,-11.04,12.26
1389,2150902630,-0.2622,0.6338,0.4644,14.27,-8.90,10.49
1390,2150907628,-0.2554,0.6309,0.4600,12.80,-6.83,8.66
1391,2150912627,-0.2559,0.6265,0.4692,11.28,-4.57,6.77
1392,2150917628,-0.2588,0.6323,0.4741,10.06,-2.38,4.94
1393,2150922629,-0.2603,0.6411,0.4858,9.45,-0.37,3.17
1394,2150927628,-0.2588,0.6587,0.4878,8.96,1.59,1.22
1395,2150932630,-0.2476,0.6670,0.5044,8.90,3.17,-0.43
1396,2150937628,-0.2446,0.6772,0.5142,8.84,4.76,-2.07
1397,2150942627,-0.2437,0.6963,0.5352,8.41,5.98,-3.60
1398,2150947627,-0.2417,0.7173,0.5522,7.50,6.89,-4.94
1399,2150953004,-0.2466,0.7344,0.5703,6.52,7.68,-6.16
1400,2150957629,-0.2427,0.7534,0.5737,5.79,8.35,-7.13
1401,2150962628,-0.2466,0.7710,0.5864,5.12,8.84,-7.80
1402,2150967628,-0.2471,0.7998,0.6060,4.45,9.27,-8.29
1403,2150972630,-0.2427,0.8237,0.6099,3.96,9.76,-8.41
1404,2150977628,-0.2314,0.8359,0.6299,4.09,10.00,-8.29
1405,2150982627,-0.2241,0.8594,0.6475,4.02,10.30,-7.93
1406,2150987628,-0.2178,0.8794,0.6699,3.78,10.49,-7.13
1407,2150992630,-0.2256,0.8882,0.6787,3.41,10.61,-6.22
1408,2150997629,-0.2314,0.8901,0.6899,2.56,10.49,-5.18
1409,2151002627,-0.2480,0.8970,0.7085,0.91,10.00,-3.96
1410,2151007628,-0.2720,0.8994,0.7222,-1.71,9.39,-3.11
1411,2151012627,-0.2876,0.8877,0.7397,-4.09,8.48,-2.20
1412,2151017627,-0.3130,0.8809,0.7539,-5.18,7.38,-1.46
1413,2151022627,-0.3281,0.8784,0.7622,-5.12,5.98,-1.04
1414,2151027627,-0.3403,0.8813,0.7715,-4.27,4.63,-0.73
1415,2151032627,-0.3403,0.8755,0.7710,-3.35,3.23,-0.43
1416,2151037659,-0.3438,0.8794,0.7710,-2.38,1.71,0.06
1417,2151042629,-0.3252,0.8901,0.7695,-1.77,0.24,0.43
1418,2151047628,-0.3071,0.8901,0.7598,-1.46,-0.91,0.85
1419,2151052627,-0.2847,0.8975,0.7554,-1.16,-1.89,1.65
1420,2151057629,-0.2676,0.9028,0.7437,-0.61,-3.05,2.44
1421,2151062628,-0.2520,0.9023,0.7378,-0.12,-3.78,3.41
1422,2151067627,-0.2461,0.8936,0.7456,0.24,-4.51,4.33
1423,2151072689,-0.2407,0.8916,0.7427,0.55,-5.06,5.18
1424,2151077629,-0.2471,0.8843,0.7295,1.16,-5.73,5.73
1425,2151082627,-0.2495,0.8735,0.7158,1.71,-6.22,6.34
1426,2151087627,-0.2515,0.8662,0.7109,2.01,-6.59,6.77
1427,2151092627,-0.2573,0.8535,0.7021,2.01,-7.20,6.95
1428,2151097627,-0.2593,0.8438,0.6953,1.59,-7.62,7.26
1429,2151102627,-0.2734,0.8296,0.6812,1.22,-7.93,7.07
1430,2151107629,-0.2808,0.8179,0.6733,0.91,-8.23,6.89
1431,2151112630,-0.2808,0.8120,0.6494,1.22,-8.23,6.46
1432,2151117629,-0.2808,0.7969,0.6426,2.13,-8.11,6.16
1433,2151122630,-0.2827,0.7847,0.6304,3.41,-7.80,5.91
1434,2151127627,-0.2900,0.7832,0.6284,4.82,-7.50,5.67
1435,2151132627,-0.2979,0.7754,0.6279,6.40,-7.01,5.12
1436,2151137629,-0.2954,0.7676,0.6133,8.23,-6.28,4.45
1437,2151142629,-0.2925,0.7588,0.6045,10.06,-5.61,3.72
1438,2151147629,-0.2900,0.7593,0.6074,10.67,-5.24,3.17
1439,2151152628,-0.2905,0.7539,0.6123,11.04,-4.57,2.32
1440,2151157629,-0.2896,0.7529,0.6128,11.16,-3.96,1.59
1441,2151162628,-0.2783,0.7578,0.6187,11.46,-3.23,0.49
1442,2151167629,-0.2764,0.7593,0.6152,11.52,-2.87,-0.12
1443,2151172628,-0.2715,0.7676,0.6128,11.34,-2.44,-0.61
1444,2151177627,-0.2734,0.7690,0.6021,10.85,-2.26,-0.98
1445,2151182629,-0.2852,0.7710,0.5991,9.82,-1.89,-1.40
1446,2151187628,-0.2827,0.7666,0.5840,8.66,-1.59,-1.77
1447,2151192629,-0.2793,0.7720,0.5752,7.87,-1.16,-1.89
1448,2151197634,-0.2798,0.7808,0.5615,7.20,-0.55,-2.32
1449,2151202629,-0.2734,0.7852,0.5659,7.07,0.00,-2.44
1450,2151207627,-0.2656,0.7939,0.5635,7.20,0.79,-2.62
1451,2151212678,-0.2612,0.7998,0.5728,7.62,1.65,-2.62
1452,2151217628,-0.2656,0.8003,0.5815,8.23,2.44,-2.56
1453,2151222627,-0.2656,0.8091,0.5898,8.48,3.17,-2.26
1454,2151227629,-0.2666,0.8120,0.6045,8.41,3.66,-2.13
1455,2151232628,-0.2686,0.8037,0.6265,8.41,4.21,-1.77
1456,2151237628,-0.2710,0.8008,0.6401,8.78,4.09,-1.52
1457,2151242629,-0.2720,0.7983,0.6567,9.09,4.02,-1.34
1458,2151247629,-0.2769,0.7954,0.6641,9.09,3.54,-1.28
1459,2151252627,-0.2803,0.7881,0.6743,8.29,2.93,-1.22
1460,2151257629,-0.2773,0.7773,0.6816,7.01,2.38,-1.59
1461,2151262629,-0.2749,0.7729,0.6831,5.73,1.59,-1.77
1462,2151267628,-0.2905,0.7656,0.6831,4.51,0.73,-2.07
1463,2151272629,-0.3032,0.7568,0.6826,3.72,0.06,-2.44
1464,2151277628,-0.3154,0.7573,0.6777,3.23,-0.49,-3.05
1465,2151282627,-0.3213,0.7676,0.6655,3.17,-0.98,-3.60
1466,2151287627,-0.3247,0.7725,0.6562,3.29,-1.22,-3.96
1467,2151292629,-0.3296,0.7881,0.6543,3.90,-1.34,-4.15
1468,2151297628,-0.3237,0.8081,0.6475,5.06,-1.28,-4.09
1469,2151302629,-0.3203,0.8213,0.6421,6.46,-1.22,-3.78
1470,2151307629,-0.3140,0.8350,0.6455,7.07,-1.22,-3.17
1471,2151312627,-0.3086,0.8506,0.6528,7.20,-1.04,-2.68
1472,2151317627,-0.3037,0.8569,0.6548,6.95,-1.10,-1.89
1473,2151322629,-0.3003,0.8560,0.6504,6.83,-0.91,-1.28
1474,2151327629,-0.2925,0.8584,0.6543,6.95,-0.98,-0.49
1475,2151332629,-0.2822,0.8560,0.6602,7.01,-1.10,0.24
1476,2151337629,-0.2715,0.8418,0.6602,7.07,-1.10,0.85
1477,2151342627,-0.2686,0.8340,0.6553,6.71,-1.10,1.28
1478,2151347631,-0.2783,0.8340,0.6465,6.04,-1.16,1.71
1479,2151352629,-0.2876,0.8242,0.6426,5.24,-1.16,2.01
1480,2151357629,-0.3032,0.8208,0.6401,5.00,-1.10,2.13
1481,2151362629,-0.3228,0.8154,0.6304,5.06,-1.04,2.26
1482,2151367629,-0.3403,0.8154,0.6333,5.43,-0.85,2.38
1483,2151372628,-0.3540,0.8086,0.6353,5.61,-0.98,2.01
1484,2151377627,-0.3643,0.8037,0.6357,5.79,-1.10,1.89
1485,2151382629,-0.3672,0.8003,0.6479,5.91,-1.28,1.46
1486,2151387628,-0.3569,0.8032,0.6479,6.16,-1.46,0.91
1487,2151392627,-0.3447,0.8037,0.6572,6.52,-1.71,0.49
1488,2151397627,-0.3242,0.8174,0.6616,6.59,-2.07,0.18
1489,2151402629,-0.3008,0.8315,0.6631,6.22,-2.26,0.00
1490,2151407629,-0.2793,0.8389,0.6602,5.49,-2.56,-0.12
1491,2151412627,-0.2646,0.8467,0.6665,4.82,-2.68,0.12
1492,2151417627,-0.2500,0.8516,0.6611,4.09,-2.62,0.30
1493,2151422627,-0.2471,0.8599,0.6582,3.60,-2.50,0.67
1494,2151427629,-0.2544,0.8623,0.6567,3.23,-2.62,1.16
1495,2151432628,-0.2617,0.8604,0.6455,3.11,-2.50,1.65
1496,2151437630,-0.2681,0.8506,0.6392,2.99,-2.44,2.13
1497,2151442670,-0.2900,0.8423,0.6450,2.99,-2.32,2.50
1498,2151447627,-0.2983,0.8354,0.6396,3.11,-2.20,2.74
1499,2151452701,-0.3076,0.8267,0.6460,3.72,-1.95,2.62
1500,2151457629,-0.3159,0.8140,0.6382,4.33,-1.77,2.44
1501,2151462627,-0.3271,0.8154,0.6538,5.12,-1.95,2.26
1502,2151467628,-0.3193,0.8154,0.6611,5.79,-1.95,2.13
1503,2151472989,-0.3062,0.8232,0.6670,6.28,-1.95,1.95
1504,2151477629,-0.2993,0.8320,0.6675,6.59,-2.01,1.71
1505,2151482628,-0.2910,0.8423,0.6694,6.52,-2.26,1.65
1506,2151488010,-0.2739,0.8525,0.6655,6.10,-2.68,1.65
1507,2151492631,-0.2632,0.8511,0.6665,5.37,-2.87,1.83
1508,2151498162,-0.2607,0.8506,0.6660,4.45,-3.17,2.07
1509,2151502629,-0.2559,0.8511,0.6621,3.66,-3.48,2.26
1510,2151507628,-0.2554,0.8423,0.6592,2.50,-3.66,2.56
1511,2151512629,-0.2578,0.8330,0.6543,1.34,-3.90,2.80
1512,2151517627,-0.2661,0.8130,0.6543,0.61,-4.15,2.80
1513,2151522630,-0.2690,0.8008,0.6509,0.43,-4.39,2.74
1514,2151527629,-0.2705,0.7915,0.6431,0.30,-4.33,2.38
1515,2151532629,-0.2744,0.7734,0.6387,0.55,-4.27,2.01
1516,2151537629,-0.2778,0.7681,0.6382,1.34,-4.09,1.65
1517,2151542627,-0.2812,0.7725,0.6304,2.50,-4.02,1.34
1518,2151547627,-0.2778,0.7627,0.6333,3.48,-3.78,0.79
1519,2151552627,-0.2754,0.7578,0.6406,4.39,-3.78,0.30
1520,2151557765,-0.2793,0.7593,0.6421,4.94,-3.48,-0.30
1521,2151562629,-0.2832,0.7656,0.6426,5.24,-3.35,-0.85
1522,2151567761,-0.2852,0.7700,0.6426,5.43,-3.11,-1.40
1523,2151572629,-0.2905,0.7729,0.6353,5.79,-2.93,-2.01
1524,2151577627,-0.2891,0.7847,0.6382,5.73,-2.56,-2.56
1525,2151582629,-0.2812,0.7900,0.6313,5.61,-2.32,-2.87
1526,2151587628,-0.2769,0.7954,0.6284,4.94,-2.01,-2.93
1527,2151592627,-0.2803,0.8018,0.6240,3.90,-1.83,-3.17
1528,2151598071,-0.2803,0.8037,0.6157,2.74,-1.52,-3.29
1529,2151602630,-0.2754,0.8018,0.6089,1.95,-0.91,-3.54
