# skilleye imu stream v1
# device=xiao_esp32c6 imu=mpu6050 addr=0x68
# rate_hz=200 accel_range_g=16 gyro_range_dps=2000 dlpf_hz=94
# units: accel in g, gyro in deg/s, t_us in microseconds since boot (monotonic)
# no shared clock with the camera -- tap the racket once before each take
# so both recordings share a spike to align on
seq,t_us,ax,ay,az,gx,gy,gz
0,2200012627,0.3936,0.9072,0.1812,-52.50,-13.78,-18.96
1,2200017631,0.4272,0.8989,0.2002,-45.18,-13.05,-18.66
2,2200022628,0.4551,0.8877,0.2065,-37.44,-12.68,-18.35
3,2200027629,0.4736,0.8945,0.2012,-29.88,-12.26,-17.80
4,2200032627,0.4849,0.9067,0.2119,-21.89,-12.62,-17.38
5,2200037629,0.5010,0.9033,0.2075,-13.60,-13.05,-16.59
6,2200042628,0.5054,0.9033,0.2109,-5.24,-13.41,-15.73
7,2200047627,0.5142,0.9087,0.2236,3.48,-13.72,-14.57
8,2200052629,0.5347,0.9175,0.2163,12.44,-14.27,-13.48
9,2200057629,0.5439,0.8901,0.2568,20.98,-14.94,-12.13
10,2200062634,0.5479,0.9014,0.3037,29.09,-15.06,-10.61
11,2200067627,0.5391,0.9038,0.3184,36.40,-14.63,-8.84
12,2200072627,0.5273,0.9170,0.2949,43.11,-14.21,-7.07
13,2200077627,0.5161,0.9121,0.2817,48.78,-13.78,-5.18
14,2200082629,0.5093,0.9067,0.2642,53.48,-13.23,-3.17
15,2200087629,0.5083,0.9082,0.2446,57.20,-12.74,-1.10
16,2200092628,0.5200,0.9346,0.2241,59.88,-12.68,1.10
17,2200097629,0.5342,0.9688,0.2036,62.07,-12.07,2.99
18,2200102629,0.5522,1.0063,0.1729,63.84,-11.65,4.51
19,2200107629,0.5635,1.0371,0.1240,65.30,-11.28,5.85
20,2200112627,0.5737,1.0625,0.1084,65.91,-10.91,7.20
21,2200117629,0.5776,1.0664,0.1133,65.79,-10.24,8.54
22,2200122631,0.5845,1.0747,0.1240,64.88,-9.57,10.06
23,2200127629,0.5981,1.0820,0.1289,62.99,-8.72,12.01
24,2200132627,0.6108,1.0962,0.1191,60.73,-7.68,13.60
25,2200137629,0.6152,1.0991,0.1377,57.93,-6.59,15.55
26,2200142628,0.6099,1.1323,0.0894,54.63,-5.49,17.26
27,2200147627,0.6226,1.1211,0.1123,50.98,-5.00,18.72
28,2200152629,0.6650,1.0444,0.2681,48.23,-2.74,20.85
29,2200157627,0.6094,1.1274,0.0562,46.95,-0.55,23.11
30,2200162627,0.5693,1.1968,-0.0225,45.30,0.30,24.39
31,2200167631,0.5596,1.1782,0.0283,43.17,0.37,24.76
32,2200172628,0.5684,1.0835,0.0874,40.55,-0.55,25.12
33,2200177629,0.5596,1.0103,0.1338,38.05,-2.01,26.16
34,2200182629,0.5376,0.9873,0.1860,35.98,-3.23,27.32
35,2200187629,0.5195,0.9990,0.2080,34.51,-3.96,28.60
36,2200192627,0.5117,0.9985,0.2090,33.54,-4.09,29.76
37,2200197632,0.5513,1.0044,0.1680,31.40,-3.96,30.61
38,2200202631,0.5371,1.0259,0.1533,28.66,-3.29,31.16
39,2200207630,0.4907,1.0273,0.1323,26.28,-1.83,31.28
40,2200212628,0.4507,1.0137,0.0850,24.27,0.12,31.59
41,2200217629,0.4443,1.0063,0.0620,22.44,2.32,31.59
42,2200222627,0.4634,0.9927,0.0815,20.61,5.30,31.59
43,2200227629,0.4897,0.9966,0.0713,18.23,7.99,31.16
44,2200232628,0.5176,0.9829,0.0498,15.00,10.49,30.30
45,2200237675,0.5317,0.9604,0.0522,11.34,12.56,29.21
46,2200242627,0.5371,0.9429,0.0723,7.56,14.45,27.87
47,2200247631,0.5386,0.9390,0.0762,3.90,16.16,26.46
48,2200252628,0.5322,0.9316,0.0747,0.85,17.93,24.88
49,2200257627,0.5229,0.9087,0.0664,-1.59,19.33,23.41
50,2200262627,0.5122,0.8823,0.0718,-3.23,20.79,22.26
51,2200267629,0.5078,0.8735,0.0693,-4.39,22.26,21.46
52,2200272629,0.4927,0.8682,0.0659,-5.18,23.48,20.79
53,2200277629,0.4824,0.8599,0.0684,-5.55,24.94,20.43
54,2200282627,0.4824,0.8550,0.0771,-5.24,26.52,20.18
55,2200287627,0.4805,0.8525,0.0820,-4.63,28.11,20.06
56,2200292629,0.4761,0.8589,0.0806,-3.96,29.82,19.94
57,2200297629,0.4805,0.8628,0.0708,-2.93,31.34,19.88
58,2200302628,0.4990,0.8687,0.0752,-1.71,32.50,19.57
59,2200307629,0.5190,0.8696,0.0820,-0.30,33.78,19.27
60,2200312628,0.5332,0.8633,0.0894,1.40,34.88,18.84
61,2200317629,0.5391,0.8623,0.0918,3.54,35.79,18.60
62,2200322627,0.5366,0.8623,0.1011,6.04,36.77,18.29
63,2200327629,0.5239,0.8711,0.1025,8.78,37.38,17.93
64,2200332628,0.5098,0.8643,0.1113,12.01,38.23,17.50
65,2200337629,0.5063,0.8540,0.1143,14.94,39.09,17.26
66,2200342627,0.5200,0.8623,0.1211,16.95,40.00,16.89
67,2200347629,0.5493,0.8740,0.1260,17.99,40.79,16.28
68,2200352628,0.5669,0.8818,0.1299,17.93,41.52,15.61
69,2200357631,0.5737,0.8818,0.1294,17.38,41.77,14.82
70,2200362627,0.5601,0.8809,0.1313,16.52,42.01,13.90
71,2200367627,0.5356,0.8745,0.1353,16.04,42.38,13.29
72,2200372629,0.5151,0.8633,0.1318,15.43,42.32,12.99
73,2200377629,0.4941,0.8516,0.1348,15.06,42.32,12.68
74,2200382629,0.4775,0.8428,0.1313,14.82,42.13,12.87
75,2200387630,0.4639,0.8281,0.1436,14.70,41.83,13.23
76,2200392629,0.4551,0.8198,0.1450,14.45,41.52,13.90
77,2200397628,0.4502,0.8242,0.1577,14.21,40.79,14.82
78,2200402629,0.4556,0.8413,0.1562,13.96,40.49,15.49
79,2200407629,0.4741,0.8540,0.1504,13.41,40.12,16.16
80,2200412629,0.4995,0.8496,0.1548,12.38,39.63,16.71
81,2200417628,0.5103,0.8350,0.1528,11.04,39.02,17.32
82,2200422629,0.5229,0.8247,0.1733,10.18,38.23,18.05
83,2200427628,0.5352,0.8418,0.1772,9.63,37.68,18.66
84,2200432629,0.5366,0.8677,0.1826,9.76,37.07,18.78
85,2200437629,0.5176,0.8652,0.1523,9.82,36.46,18.54
86,2200442630,0.4644,0.8442,0.1592,10.12,35.30,18.17
87,2200447628,0.3984,0.8291,0.2158,10.98,33.78,17.93
88,2200452629,0.3770,0.8159,0.1997,12.62,32.44,17.80
89,2200457629,0.3652,0.7905,0.1860,13.84,30.18,17.80
90,2200462628,0.3711,0.7930,0.2212,14.27,27.56,18.17
91,2200467630,0.3872,0.7891,0.2642,14.94,25.12,18.72
92,2200472629,0.3945,0.8120,0.2832,16.22,22.87,19.39
93,2200477629,0.4131,0.8423,0.2710,17.62,20.73,19.70
94,2200482627,0.4258,0.8555,0.2622,18.90,18.78,20.12
95,2200487627,0.4341,0.8506,0.2524,19.88,16.52,20.49
96,2200492631,0.4531,0.8354,0.2539,20.37,14.21,21.10
97,2200497629,0.4663,0.8276,0.2544,20.55,11.89,21.83
98,2200502628,0.4668,0.8320,0.2432,20.49,9.57,22.50
99,2200507629,0.4678,0.8369,0.2344,20.24,7.38,23.17
100,2200512627,0.4697,0.8398,0.2393,20.06,5.24,23.66
101,2200517630,0.4639,0.8389,0.2378,20.00,3.11,23.84
102,2200522628,0.4478,0.8452,0.2500,19.94,0.98,23.90
103,2200527629,0.4390,0.8481,0.2485,19.88,-1.22,23.72
104,2200532627,0.4443,0.8403,0.2544,19.63,-3.35,23.48
105,2200538154,0.4556,0.8345,0.2432,19.27,-5.30,23.23
106,2200542629,0.4644,0.8301,0.2358,19.02,-7.56,23.23
107,2200547629,0.4644,0.8242,0.2393,19.09,-9.57,23.29
108,2200552629,0.4580,0.8262,0.2324,18.84,-11.40,23.41
109,2200557630,0.4634,0.8179,0.2227,18.54,-13.17,23.48
110,2200562629,0.4722,0.8105,0.2280,17.74,-14.94,23.41
111,2200567628,0.5049,0.7891,0.2373,16.77,-16.46,23.11
112,2200572630,0.5381,0.7690,0.2183,15.91,-17.93,23.29
113,2200577629,0.5396,0.7583,0.1968,15.67,-19.21,23.78
114,2200582630,0.5391,0.7812,0.1978,16.46,-20.00,24.57
115,2200587628,0.5479,0.8125,0.2119,17.68,-20.37,24.88
116,2200592630,0.5645,0.8408,0.2148,18.41,-20.24,24.45
117,2200597628,0.5781,0.8555,0.2051,17.99,-19.94,23.66
118,2200602643,0.5791,0.8618,0.1816,15.91,-19.76,22.50
119,2200607629,0.5762,0.8174,0.1685,13.35,-19.63,21.52
120,2200612628,0.6006,0.8242,0.1567,10.85,-19.57,20.73
121,2200617630,0.6206,0.8271,0.1509,8.96,-19.51,20.06
122,2200622627,0.6187,0.8091,0.1685,7.50,-19.09,19.88
123,2200627629,0.6123,0.8101,0.1377,6.10,-18.41,19.88
124,2200632628,0.6338,0.8184,0.1494,4.02,-17.68,19.82
125,2200637629,0.6548,0.8247,0.1318,0.91,-16.77,19.76
126,2200642627,0.6528,0.8364,0.1177,-3.41,-16.04,19.45
127,2200647629,0.6523,0.8350,0.1255,-8.96,-15.43,19.21
128,2200652628,0.6616,0.8447,0.1294,-14.51,-14.94,18.66
129,2200657629,0.6592,0.8608,0.1382,-19.33,-14.45,18.17
130,2200662627,0.6621,0.8765,0.1533,-23.05,-13.96,17.62
131,2200667629,0.6616,0.8662,0.1499,-25.85,-13.54,16.95
132,2200672629,0.6479,0.8540,0.1445,-27.93,-13.41,16.40
133,2200677629,0.6338,0.8442,0.1475,-29.63,-13.29,16.10
134,2200682627,0.6245,0.8452,0.1479,-31.04,-13.11,15.79
135,2200687629,0.6191,0.8413,0.1416,-32.13,-13.05,15.67
136,2200692629,0.6357,0.8481,0.1533,-33.23,-13.05,15.49
137,2200697629,0.6509,0.8584,0.1309,-34.21,-12.74,15.49
138,2200702628,0.6602,0.8706,0.1333,-35.18,-12.74,15.30
139,2200707627,0.6611,0.8545,0.1245,-36.46,-13.11,15.24
140,2200712629,0.6714,0.8359,0.1387,-37.62,-13.35,15.43
141,2200717628,0.6475,0.8325,0.0869,-38.66,-14.15,16.04
142,2200722629,0.6484,0.8042,0.1294,-39.21,-15.24,16.95
143,2200727629,0.6519,0.8296,0.1265,-38.29,-16.46,17.93
144,2200732629,0.6519,0.8599,0.1289,-36.40,-17.68,18.54
145,2200737628,0.6465,0.8711,0.1592,-33.54,-18.84,18.72
146,2200742629,0.6436,0.8604,0.1787,-30.30,-19.63,18.60
147,2200747628,0.6499,0.8735,0.1621,-27.32,-19.82,18.17
148,2200752629,0.6665,0.8877,0.1494,-25.37,-19.51,17.32
149,2200757629,0.6748,0.8672,0.1226,-24.82,-18.78,16.04
150,2200762629,0.6733,0.8320,0.1216,-25.43,-18.11,14.63
151,2200767629,0.6660,0.8101,0.1113,-26.40,-17.26,13.23
152,2200772629,0.6763,0.7983,0.1191,-26.89,-16.04,11.95
153,2200777629,0.6851,0.7803,0.1064,-26.52,-14.63,10.61
154,2200782629,0.6797,0.7681,0.1108,-25.43,-13.96,9.63
155,2200787629,0.6675,0.7422,0.1084,-23.66,-13.05,8.66
156,2200792629,0.6572,0.7212,0.1172,-20.98,-12.74,7.74
157,2200797630,0.6523,0.7017,0.1274,-17.56,-12.44,7.01
158,2200802629,0.6528,0.6963,0.1284,-14.15,-12.44,6.22
159,2200807628,0.6499,0.6904,0.1343,-10.55,-12.38,5.55
160,2200812629,0.6489,0.6660,0.1367,-7.20,-12.20,4.63
161,2200817629,0.6484,0.6562,0.1250,-4.21,-12.07,4.02
162,2200822629,0.6460,0.6646,0.1084,-1.95,-12.01,3.54
163,2200827628,0.6455,0.6616,0.1118,-0.12,-11.95,2.80
164,2200832629,0.6372,0.6597,0.1172,1.77,-11.83,2.44
165,2200837628,0.6221,0.6582,0.1235,3.29,-11.95,2.07
166,2200842629,0.6084,0.6631,0.1299,4.88,-11.89,1.95
167,2200847629,0.6104,0.6743,0.1421,6.10,-12.01,1.95
168,2200852629,0.6157,0.6904,0.1606,6.52,-12.07,1.89
169,2200857628,0.6211,0.6978,0.1714,6.40,-12.20,1.65
170,2200862629,0.6328,0.7007,0.1753,5.73,-12.13,1.28
171,2200867629,0.6450,0.7109,0.1904,4.88,-12.13,0.85
172,2200872628,0.6650,0.7158,0.1924,4.39,-12.01,0.55
173,2200877630,0.6792,0.7280,0.1772,4.70,-12.01,0.06
174,2200882629,0.6938,0.7397,0.1919,5.85,-11.95,-0.37
175,2200887629,0.7056,0.7598,0.2007,8.48,-11.77,-0.85
176,2200892629,0.6611,0.7402,0.4448,15.37,-12.74,-0.67
177,2200897629,0.6787,0.8247,0.6738,30.61,-12.32,-0.61
178,2200902695,0.7104,0.8149,0.3491,47.32,-14.51,-0.18
179,2200907631,0.7139,0.8184,0.3213,64.51,-17.99,1.04
180,2200912628,0.7134,0.8291,0.4824,81.10,-20.24,2.32
181,2200917629,0.7310,0.8442,0.4248,96.89,-22.50,3.72
182,2200922627,0.7500,0.8721,0.3145,111.65,-25.79,5.37
183,2200927630,0.7583,0.9155,0.3281,124.63,-28.96,7.01
184,2200932628,0.7642,0.9541,0.3394,135.91,-31.95,9.02
185,2200937629,0.7920,0.9922,0.2783,145.24,-34.88,10.91
186,2200942627,0.7358,1.0273,0.2314,152.07,-37.93,12.93
187,2200947629,0.8291,1.0254,0.1846,155.55,-40.49,14.88
188,2200952628,0.8916,1.0459,0.1011,156.46,-42.87,17.07
189,2200957629,0.8901,1.0781,0.0103,155.43,-44.63,19.51
190,2200962627,0.8706,1.0908,-0.0322,152.20,-46.28,22.20
191,2200967629,0.9077,1.0884,-0.0234,146.10,-47.32,24.88
192,2200972629,0.8589,1.1172,-0.0215,137.20,-48.11,27.38
193,2200977629,0.8018,1.1611,0.0137,125.79,-48.35,29.63
194,2200982627,0.8208,1.1890,0.0093,111.95,-48.17,32.32
195,2200987629,0.8047,1.1973,-0.0737,97.38,-47.74,35.24
196,2200992628,0.7939,1.2012,-0.0464,82.87,-46.95,38.54
197,2200997627,0.7891,1.2290,0.0098,68.72,-45.73,42.26
198,2201002629,0.7915,1.2617,0.0186,55.98,-44.45,46.28
199,2201007629,0.7827,1.3076,0.0010,45.37,-43.48,50.79
200,2201012628,0.7759,1.3418,0.0366,37.56,-42.07,55.61
201,2201017629,0.7598,1.4438,-0.0693,33.17,-40.49,61.22
202,2201022627,0.8101,1.5366,-0.0952,34.33,-38.90,67.80
203,2201027628,0.8247,1.5688,-0.0259,38.35,-36.59,74.76
204,2201032627,0.8110,1.4688,-0.0454,43.41,-34.02,81.52
205,2201037629,0.8462,1.4165,-0.1655,47.68,-32.13,88.29
206,2201042629,0.8672,1.4575,-0.1826,52.62,-30.06,95.43
207,2201047628,0.8721,1.5049,-0.1475,57.87,-27.26,102.20
208,2201052627,0.8848,1.5098,-0.2100,62.32,-24.21,108.96
209,2201057630,0.8867,1.4717,-0.2627,64.76,-21.59,115.43
210,2201062627,0.8716,1.4141,-0.2324,64.27,-18.72,121.71
211,2201067628,0.8564,1.3516,-0.2222,60.73,-15.73,127.74
212,2201072630,0.8560,1.3052,-0.2676,54.27,-12.93,133.11
213,2201077629,0.8511,1.2700,-0.2700,45.79,-10.55,138.35
214,2201082630,0.8442,1.2446,-0.2417,36.10,-8.11,142.99
215,2201087627,0.8467,1.2026,-0.2466,26.28,-5.85,147.20
216,2201092628,0.8398,1.1509,-0.2700,17.01,-3.90,151.10
217,2201097629,0.8320,1.0913,-0.2627,8.78,-2.13,154.82
218,2201102629,0.8252,1.0439,-0.2471,2.20,-0.61,158.29
219,2201107629,0.8315,0.9917,-0.2559,-2.32,0.79,161.10
220,2201112628,0.8276,0.9482,-0.2646,-4.76,1.71,163.78
221,2201117629,0.8242,0.9067,-0.2573,-5.12,2.99,166.10
222,2201122629,0.8159,0.8687,-0.2539,-3.23,3.90,168.11
223,2201127632,0.8223,0.8286,-0.2598,0.55,4.70,170.00
224,2201132627,0.8252,0.7866,-0.2520,5.37,5.61,171.40
225,2201137627,0.8130,0.7471,-0.2515,10.00,6.65,172.38
226,2201142627,0.8086,0.7046,-0.2642,13.90,7.50,173.05
227,2201147631,0.8057,0.6631,-0.2646,16.59,8.41,173.41
228,2201152628,0.7935,0.6167,-0.2690,18.11,9.57,173.48
229,2201157629,0.7925,0.5801,-0.2622,18.84,10.49,173.05
230,2201162627,0.7783,0.5430,-0.2612,19.09,11.59,172.50
231,2201167629,0.7642,0.5068,-0.2632,18.72,12.68,171.52
232,2201172628,0.7573,0.4678,-0.2656,17.87,13.72,170.18
233,2201177631,0.7490,0.4312,-0.2686,16.34,14.88,168.90
234,2201182627,0.7275,0.3896,-0.2656,14.63,16.10,167.44
235,2201187632,0.7090,0.3652,-0.2720,13.35,17.13,165.85
236,2201192627,0.7046,0.3438,-0.2568,12.44,18.23,164.15
237,2201197867,0.6758,0.3149,-0.2588,11.83,19.51,162.32
238,2201202629,0.6411,0.2808,-0.2559,10.91,20.73,160.67
239,2201207629,0.6255,0.2344,-0.2617,9.82,21.77,158.90
240,2201212628,0.6245,0.1997,-0.2563,9.09,22.74,157.32
241,2201217629,0.6084,0.1694,-0.2437,9.09,23.54,155.49
242,2201222627,0.5981,0.1323,-0.2324,10.37,24.21,153.54
243,2201227629,0.5981,0.1040,-0.2310,12.68,24.88,151.46
244,2201232628,0.5981,0.0728,-0.2246,15.43,25.55,148.84
245,2201237629,0.5938,0.0410,-0.2197,17.74,26.22,146.28
246,2201242627,0.5781,0.0117,-0.2183,19.63,26.83,143.48
247,2201247627,0.5757,-0.0015,-0.2148,21.04,27.68,140.43
248,2201252627,0.5713,-0.0186,-0.2075,22.50,28.41,137.13
249,2201257719,0.5859,-0.0273,-0.2153,23.35,29.45,133.84
250,2201262631,0.5840,-0.0371,-0.2148,23.23,30.37,130.49
251,2201267629,0.5664,-0.0498,-0.2104,21.95,31.22,127.20
252,2201272628,0.5518,-0.0698,-0.2109,19.63,32.26,123.90
253,2201278029,0.5396,-0.0859,-0.2095,16.04,33.54,120.06
254,2201282629,0.5273,-0.1084,-0.2041,13.84,34.45,117.38
255,2201287628,0.5298,-0.1255,-0.1953,11.52,35.24,114.21
256,2201292629,0.5454,-0.1348,-0.1929,10.43,36.10,110.85
257,2201297629,0.5630,-0.1548,-0.1919,10.43,36.95,107.32
258,2201302629,0.5571,-0.1748,-0.1846,10.91,37.74,103.90
259,2201307627,0.5552,-0.2026,-0.1875,12.13,38.54,100.37
260,2201312628,0.5439,-0.2227,-0.1792,13.96,39.27,96.95
261,2201317629,0.5542,-0.2324,-0.1738,16.22,40.06,93.41
262,2201322628,0.5728,-0.2466,-0.1665,18.35,40.98,89.57
263,2201327629,0.5630,-0.2690,-0.1602,19.45,42.07,85.79
264,2201332627,0.5503,-0.2925,-0.1641,18.72,42.87,81.77
265,2201337630,0.5547,-0.3105,-0.1660,16.89,43.90,77.93
266,2201342627,0.5532,-0.3242,-0.1562,14.15,44.51,73.78
267,2201347629,0.5322,-0.3447,-0.1260,10.91,44.45,69.63
268,2201352627,0.5225,-0.3647,-0.1279,7.07,46.04,65.61
269,2201357629,0.5229,-0.3745,-0.1421,1.46,47.01,60.43
270,2201362632,0.5308,-0.4053,-0.1265,-2.44,47.68,57.07
271,2201367627,0.4839,-0.4272,-0.1162,-7.01,48.17,52.87
272,2201372627,0.5083,-0.4453,-0.1016,-11.83,48.41,48.23
273,2201377627,0.5254,-0.4722,-0.1021,-17.07,48.78,43.48
274,2201382629,0.5283,-0.5059,-0.1030,-21.77,48.54,38.35
275,2201387804,0.5229,-0.5469,-0.0889,-25.49,48.35,32.01
276,2201392629,0.5166,-0.5723,-0.0752,-26.04,47.87,27.74
277,2201397629,0.5137,-0.5972,-0.0693,-24.51,47.80,22.13
278,2201402629,0.5239,-0.6265,-0.0581,-20.55,47.26,16.22
279,2201407630,0.5303,-0.6499,-0.0547,-14.27,46.59,10.00
280,2201412629,0.5312,-0.6724,-0.0493,-6.22,45.91,3.60
281,2201417627,0.5405,-0.6914,-0.0283,3.05,45.12,-3.17
282,2201422627,0.5459,-0.6914,-0.0215,13.17,43.90,-10.18
283,2201428137,0.5513,-0.7100,-0.0195,24.57,42.56,-19.02
284,2201432629,0.5493,-0.7158,-0.0156,31.10,41.46,-25.00
285,2201437629,0.5474,-0.7212,-0.0029,37.44,39.88,-32.74
286,2201442691,0.5474,-0.7212,0.0107,41.52,38.17,-40.55
287,2201447630,0.5522,-0.7183,0.0200,43.48,36.22,-48.41
288,2201452629,0.5605,-0.7163,0.0415,43.41,34.02,-56.34
289,2201457629,0.5771,-0.7129,0.0586,42.07,31.65,-64.51
290,2201462628,0.5889,-0.6992,0.0933,40.00,29.02,-72.80
291,2201467629,0.6099,-0.6855,0.1104,37.01,26.59,-81.40
292,2201472627,0.6265,-0.6851,0.1196,33.17,24.02,-89.94
293,2201477629,0.6313,-0.6709,0.1299,28.90,21.10,-98.66
294,2201482628,0.6260,-0.6587,0.1572,25.37,18.23,-107.20
295,2201487627,0.5977,-0.6392,0.1816,23.29,15.37,-115.61
296,2201492631,0.5791,-0.6172,0.1963,23.54,12.80,-124.09
297,2201497805,0.5791,-0.6025,0.2065,26.71,9.27,-133.84
298,2201502629,0.5640,-0.5835,0.2139,30.61,6.83,-140.24
299,2201507629,0.5508,-0.5547,0.2271,37.56,3.60,-147.93
300,2201512629,0.5898,-0.4854,0.2466,48.29,-0.79,-157.32
301,2201517627,0.6187,-0.4321,0.2505,55.91,-3.84,-163.60
302,2201522629,0.6177,-0.3828,0.2617,64.63,-7.87,-171.28
303,2201527627,0.5889,-0.3384,0.2549,71.59,-12.01,-178.29
304,2201532629,0.5752,-0.2861,0.2593,76.34,-16.52,-184.76
305,2201537628,0.5942,-0.2207,0.2559,78.78,-20.91,-190.79
306,2201542630,0.5972,-0.1567,0.2490,79.21,-25.49,-196.59
307,2201547629,0.6089,-0.1025,0.2505,78.23,-30.12,-201.89
308,2201552629,0.6299,-0.0430,0.2300,76.40,-34.57,-207.07
309,2201557627,0.6499,0.0186,0.2134,74.33,-38.90,-211.95
310,2201562629,0.6660,0.0942,0.2051,72.38,-42.68,-216.77
311,2201567630,0.6943,0.1846,0.1899,71.28,-46.16,-221.46
312,2201572629,0.7158,0.2637,0.1782,70.18,-48.90,-225.49
313,2201577629,0.7192,0.3530,0.1636,68.78,-51.10,-228.96
314,2201582629,0.7017,0.4453,0.1333,66.10,-52.38,-231.40
315,2201587628,0.6602,0.5352,0.1001,61.95,-53.17,-232.80
316,2201592630,0.6255,0.6304,0.0425,56.10,-53.35,-232.80
317,2201597628,0.6318,0.7388,-0.0073,49.21,-52.74,-231.52
318,2201602629,0.9438,2.6904,-0.0972,42.80,-51.77,-227.26
319,2201607629,1.3228,12.2046,1.0068,84.76,-36.10,-123.17
320,2201612630,1.4141,5.0112,0.3062,23.60,-42.01,-21.77
321,2201617627,1.3013,2.1470,-0.6133,-29.76,-53.72,18.11
322,2201622627,1.0913,1.3301,0.5249,-38.96,-49.63,34.76
323,2201627628,1.0630,1.2314,0.2202,-28.54,-41.89,41.40
324,2201632629,1.1284,1.2148,-0.7598,-15.91,-41.16,44.33
325,2201637629,1.0767,1.2554,-0.3125,-9.33,-40.24,46.34
326,2201642629,0.9819,1.0811,0.3237,-6.34,-34.33,48.72
327,2201647628,0.9736,1.0923,0.1128,-3.05,-29.82,52.13
328,2201652630,1.0098,0.7871,-0.5317,-0.73,-29.51,55.30
329,2201657628,0.9941,0.8618,-0.0381,1.65,-25.73,58.60
330,2201662629,0.9746,0.9624,0.0596,2.20,-20.18,62.01
331,2201667629,0.9731,1.0171,-0.3501,0.85,-17.07,65.30
332,2201672629,0.9722,1.0127,-0.3066,-2.20,-15.06,68.72
333,2201677628,0.9839,0.9497,0.0034,-6.52,-11.22,72.32
334,2201682629,1.0015,0.8550,-0.0977,-11.34,-7.62,76.10
335,2201688040,0.9780,0.8428,-0.2231,-17.13,-4.76,80.67
336,2201692629,0.9595,0.8135,-0.1592,-20.91,-3.84,84.02
337,2201697629,0.9673,0.8447,-0.0508,-25.37,-0.91,87.13
338,2201702629,0.9839,0.8457,-0.2109,-29.27,1.04,91.34
339,2201707628,0.9629,0.8296,-0.2676,-31.89,2.32,95.18
340,2201712629,0.9302,0.7925,-0.1494,-32.74,4.02,99.27
341,2201717628,0.8940,0.7412,-0.1660,-31.52,6.10,103.35
342,2201722629,0.8774,0.6978,-0.2593,-28.35,7.44,107.38
343,2201727629,0.8677,0.6597,-0.2290,-23.23,8.66,111.40
344,2201732629,0.8574,0.6357,-0.1558,-17.01,10.24,115.12
345,2201737628,0.8530,0.5913,-0.1763,-10.67,11.65,118.35
346,2201742629,0.8521,0.5220,-0.2061,-5.49,12.50,121.16
347,2201747628,0.8623,0.4380,-0.1685,-2.07,13.35,123.78
348,2201752630,0.8662,0.3613,-0.1187,-1.83,13.78,125.37
349,2201757629,0.8623,0.2925,-0.1436,-3.23,14.09,126.16
350,2201762629,0.8457,0.2231,-0.1201,-6.59,14.02,126.52
351,2201767628,0.8267,0.1597,-0.0767,-11.28,13.90,126.10
352,2201772629,0.8188,0.0649,-0.0557,-18.17,13.54,124.82
353,2201777628,0.8237,0.0063,-0.0762,-23.23,13.11,123.11
354,2201782629,0.8140,-0.0864,-0.0586,-31.28,12.38,119.76
355,2201787628,0.8008,-0.1631,-0.0264,-38.11,11.83,116.16
356,2201792630,0.7852,-0.2490,-0.0166,-44.51,10.98,111.71
357,2201797629,0.7783,-0.3306,-0.0239,-50.12,10.12,106.40
358,2201802628,0.7637,-0.4077,-0.0190,-53.96,8.84,100.43
359,2201807669,0.7500,-0.4810,-0.0010,-56.04,7.68,93.78
360,2201812627,0.7446,-0.5640,-0.0010,-55.67,6.40,85.79
361,2201817627,0.7314,-0.6206,-0.0010,-53.60,5.37,79.70
362,2201822629,0.7207,-0.7080,0.0117,-47.68,3.72,68.78
363,2201827629,0.7075,-0.7715,0.0122,-40.61,2.44,58.96
364,2201832629,0.6870,-0.8315,0.0093,-32.01,1.22,48.41
365,2201837628,0.6611,-0.8862,0.0166,-22.56,0.00,37.20
366,2201842629,0.6406,-0.9277,0.0215,-13.17,-1.04,25.43
367,2201847628,0.6274,-0.9653,0.0239,-4.63,-2.01,13.11
368,2201852629,0.5977,-0.9980,0.0200,2.74,-3.05,0.37
369,2201857630,0.5635,-1.0239,0.0278,8.72,-4.15,-12.68
370,2201862629,0.5425,-1.0469,0.0273,13.17,-5.00,-26.22
371,2201867628,0.5371,-1.0605,0.0254,16.04,-5.98,-39.88
372,2201872629,0.5088,-1.0586,0.0200,17.62,-6.89,-53.90
373,2201877629,0.4849,-1.0488,0.0308,18.29,-7.68,-68.17
374,2201882969,0.4746,-1.0356,0.0269,17.93,-8.23,-82.50
375,2201887793,0.4648,-1.0093,0.0215,16.46,-8.84,-96.95
376,2201892630,0.4683,-0.9761,0.0117,14.15,-9.33,-111.34
377,2201897629,0.4756,-0.9365,0.0156,11.46,-9.88,-125.79
378,2201902629,0.4741,-0.8823,0.0166,8.66,-10.43,-140.06
379,2201907628,0.4722,-0.8262,0.0078,5.85,-10.67,-154.21
380,2201912629,0.4658,-0.7710,0.0049,2.80,-10.73,-168.05
381,2201917628,0.4565,-0.7153,-0.0132,-0.18,-10.85,-181.28
382,2201922629,0.4375,-0.6606,-0.0166,-3.05,-10.73,-193.96
383,2201928002,0.4297,-0.5957,-0.0264,-5.12,-10.61,-206.04
384,2201932629,0.4316,-0.5088,-0.0293,-6.40,-10.37,-217.80
385,2201937628,0.4512,-0.4238,-0.0371,-6.89,-10.00,-228.96
386,2201942629,0.4590,-0.3267,-0.0532,-6.59,-9.39,-239.82
387,2201947629,0.4570,-0.2275,-0.0625,-5.73,-8.90,-249.82
388,2201952629,0.4346,-0.1289,-0.0718,-4.45,-8.11,-258.96
389,2201957673,0.4180,-0.0249,-0.0845,-2.80,-7.07,-266.89
390,2201962630,0.3994,0.0830,-0.0952,-0.79,-5.91,-273.48
391,2201967628,2.3208,10.2305,0.7900,-1.89,-5.85,-233.54
392,2201972629,1.3916,5.9780,-0.0327,-28.35,-18.05,-110.00
393,2201977629,1.1406,5.7798,0.3276,-35.49,-17.56,-60.98
394,2201982629,0.9985,4.3320,0.3755,-51.10,-21.46,-32.01
395,2201987628,1.1348,2.1025,0.4160,-58.17,-24.51,-12.56
396,2201992629,0.9868,0.2422,0.4316,-60.79,-25.91,-3.05
397,2201997627,0.8945,-0.5195,0.1465,-48.41,-26.59,0.98
398,2202002627,0.8433,-0.1543,-0.0898,-24.76,-27.01,1.40
399,2202007880,0.8296,0.6577,-0.0020,2.20,-26.89,-0.79
400,2202012630,0.8599,1.1860,0.0303,21.89,-26.59,-4.57
401,2202017629,0.8540,1.0835,-0.0586,34.88,-27.38,-8.72
402,2202022629,0.8301,0.5171,0.0181,42.38,-28.48,-12.07
403,2202027628,0.8096,-0.0352,0.1353,44.51,-28.96,-14.63
404,2202032629,0.7910,-0.1870,0.1006,42.07,-29.63,-17.13
405,2202037628,0.7964,0.0957,0.0444,35.79,-30.91,-20.12
406,2202042629,0.7842,0.5171,0.0933,26.10,-31.77,-23.96
407,2202047629,0.7612,0.7764,0.1064,13.35,-32.13,-27.74
408,2202052629,0.7402,0.7378,0.0508,-1.34,-32.62,-30.85
409,2202057628,0.7197,0.5029,0.0356,-17.07,-33.35,-33.17
410,2202062630,0.6982,0.2822,0.0752,-32.44,-33.48,-34.70
411,2202067628,0.6689,0.2451,0.0752,-46.65,-33.29,-35.98
412,2202072629,0.6450,0.3809,0.0381,-58.90,-32.99,-37.32
413,2202077629,0.6367,0.5703,0.0352,-69.15,-32.50,-38.72
414,2202082629,0.6396,0.6885,0.0444,-77.50,-31.52,-40.06
415,2202087628,0.6348,0.6758,0.0176,-83.90,-30.55,-41.16
416,2202092629,0.6187,0.5825,-0.0073,-87.99,-29.88,-41.77
417,2202097629,0.5977,0.4976,0.0088,-89.82,-28.84,-41.89
418,2202102629,0.5767,0.4883,0.0083,-89.27,-27.93,-41.71
419,2202107629,0.5718,0.5439,-0.0103,-86.28,-26.59,-41.40
420,2202112629,0.5693,0.6187,-0.0137,-81.59,-25.43,-41.22
421,2202117627,0.5635,0.6597,-0.0073,-75.55,-24.15,-40.73
422,2202122629,0.5547,0.6401,-0.0225,-68.72,-22.93,-40.18
423,2202127832,0.5449,0.5918,-0.0361,-61.95,-21.89,-39.45
424,2202132630,0.5430,0.5474,-0.0391,-55.37,-20.91,-38.72
425,2202137628,0.5405,0.5352,-0.0405,-49.45,-19.88,-38.11
426,2202142629,0.5562,0.5483,-0.0371,-44.21,-19.09,-37.62
427,2202147629,0.5728,0.5732,-0.0508,-39.94,-18.29,-37.26
428,2202152629,0.5762,0.5771,-0.0542,-36.59,-17.62,-37.01
429,2202157628,0.5801,0.5630,-0.0474,-34.57,-16.83,-36.77
430,2202162629,0.5938,0.5542,-0.0605,-34.27,-16.34,-36.59
431,2202167630,0.6108,0.5474,-0.0591,-36.04,-15.85,-36.71
432,2202172629,0.6470,0.5415,-0.0630,-39.76,-15.37,-37.20
433,2202177629,0.6597,0.5557,-0.0776,-45.12,-15.12,-37.74
434,2202182629,0.6543,0.5757,-0.0908,-51.59,-14.82,-38.29
435,2202187628,0.6479,0.5776,-0.1045,-58.35,-14.57,-38.84
436,2202192628,0.6406,0.5840,-0.1147,-63.96,-14.39,-39.27
437,2202197631,0.6323,0.5737,-0.1235,-67.74,-14.02,-39.70
438,2202202630,0.6377,0.5742,-0.1147,-68.41,-13.48,-39.94
439,2202207629,0.6572,0.5781,-0.1133,-66.10,-12.74,-40.30
440,2202212631,0.6841,0.5771,-0.1187,-60.98,-11.89,-40.43
441,2202217629,0.7129,0.5913,-0.1274,-53.66,-11.04,-40.85
442,2202222628,0.7349,0.6152,-0.1270,-44.88,-10.18,-41.46
443,2202228026,0.7700,0.6152,-0.1235,-35.37,-9.57,-42.32
444,2202232629,0.7993,0.6064,-0.1260,-25.73,-8.90,-43.17
445,2202237631,0.8130,0.6021,-0.1323,-16.71,-8.35,-43.90
446,2202242628,0.8154,0.6060,-0.1309,-8.78,-7.99,-44.57
447,2202247627,0.8188,0.6084,-0.1431,-2.99,-7.62,-45.12
448,2202252627,0.8188,0.6064,-0.1519,0.98,-7.26,-45.73
449,2202257628,0.8110,0.6182,-0.1602,2.87,-6.71,-46.16
450,2202262629,0.8076,0.6338,-0.1562,3.11,-6.34,-46.71
451,2202267629,0.8052,0.6328,-0.1611,1.71,-5.85,-47.32
452,2202272629,0.8115,0.6230,-0.1631,-0.61,-5.06,-47.74
453,2202277750,0.8145,0.6235,-0.1733,-3.54,-4.21,-47.99
454,2202282630,0.8174,0.6284,-0.1802,-6.65,-3.11,-48.23
455,2202287629,0.8423,0.6343,-0.1934,-8.78,-2.13,-48.29
456,2202292629,0.8706,0.6455,-0.1899,-9.76,-1.16,-48.23
457,2202297627,0.8711,0.6567,-0.1792,-8.72,0.24,-48.23
458,2202303097,0.8711,0.6689,-0.1821,-5.98,1.65,-48.05
459,2202307630,0.8867,0.6797,-0.1841,-1.71,3.23,-47.99
460,2202312627,0.9150,0.6958,-0.1787,3.48,4.76,-47.68
461,2202317627,0.9199,0.7046,-0.1699,9.27,6.28,-47.20
462,2202322629,0.9131,0.7295,-0.1724,15.00,7.80,-46.83
463,2202327629,0.9038,0.7437,-0.1694,19.88,9.45,-46.22
464,2202332629,0.9043,0.7495,-0.1753,23.41,11.10,-45.61
465,2202337628,0.9209,0.7593,-0.1841,25.24,12.74,-44.76
466,2202342629,0.9136,0.7666,-0.1826,25.00,14.39,-43.72
467,2202347628,0.9009,0.7764,-0.1914,23.66,16.04,-42.56
468,2202352629,0.8984,0.7905,-0.1943,21.40,17.68,-41.28
469,2202357629,0.8979,0.7964,-0.1929,18.96,19.33,-40.00
470,2202362629,0.9155,0.8018,-0.1880,17.26,21.16,-38.54
471,2202367630,0.9277,0.8105,-0.1899,16.34,23.23,-36.83
472,2202372629,0.9214,0.8237,-0.1885,16.34,24.94,-35.12
473,2202377628,0.9131,0.8335,-0.1797,17.13,26.77,-33.35
474,2202382629,0.9238,0.8330,-0.1821,18.41,28.54,-31.40
475,2202387628,0.9468,0.8438,-0.1797,19.70,30.37,-29.57
476,2202392628,0.9604,0.8530,-0.1777,20.67,32.01,-27.62
477,2202397629,0.9570,0.8589,-0.1875,21.28,33.72,-25.49
478,2202402628,0.9448,0.8721,-0.1948,21.52,35.24,-23.48
479,2202407632,0.9375,0.8735,-0.1846,21.89,36.83,-21.22
480,2202412629,0.9321,0.8745,-0.1782,22.50,38.29,-18.78
481,2202417627,0.9229,0.8789,-0.1855,23.41,40.00,-16.22
482,2202422627,0.9180,0.8799,-0.1714,24.82,41.52,-13.66
483,2202427629,0.9272,0.8843,-0.1670,26.71,43.23,-10.98
484,2202432627,0.9385,0.8892,-0.1616,29.15,44.82,-8.35
485,2202437629,0.9414,0.8901,-0.1558,31.77,46.34,-5.79
486,2202442628,0.9438,0.8940,-0.1416,34.33,48.05,-3.29
487,2202447629,0.9487,0.8896,-0.1445,36.16,49.76,-0.98
488,2202452627,0.9517,0.8916,-0.1372,36.95,51.40,1.34
489,2202457627,0.9473,0.8857,-0.1333,36.89,53.11,3.48
490,2202462628,0.9404,0.8853,-0.1318,35.67,54.76,5.61
491,2202467627,0.9390,0.8779,-0.1152,33.78,56.46,7.68
492,2202472683,0.9331,0.8774,-0.1123,31.40,57.93,9.82
493,2202477627,0.9292,0.8662,-0.1104,28.90,59.45,11.89
494,2202482627,0.9287,0.8550,-0.1060,26.34,61.04,13.84
495,2202487627,0.9316,0.8457,-0.0986,24.09,62.20,15.91
496,2202492627,0.9248,0.8398,-0.0859,22.13,63.48,17.80
497,2202497627,0.9199,0.8325,-0.0938,20.91,64.70,19.76
498,2202502631,0.9160,0.8389,-0.0488,20.06,65.91,21.59
499,2202507629,0.9131,0.8359,0.0063,18.54,66.77,23.60
500,2202512627,0.9253,0.8203,0.0273,16.34,67.32,25.55
501,2202517627,0.9160,0.8062,0.0288,15.06,67.68,27.44
502,2202522627,0.9263,0.7939,0.0210,15.43,67.93,29.09
503,2202527629,0.9316,0.7871,0.0679,17.26,68.23,30.73
504,2202532629,0.9316,0.7954,0.1279,18.90,68.72,32.13
505,2202537629,0.9380,0.7876,0.1514,19.63,68.54,33.54
506,2202542629,0.9443,0.7891,0.1851,18.84,68.23,34.94
507,2202547628,0.9517,0.7861,0.2227,17.38,67.80,36.04
508,2202552629,0.9390,0.7744,0.2358,15.79,67.26,37.26
509,2202557629,0.9277,0.7671,0.2095,14.51,66.52,38.41
510,2202562629,0.9365,0.7622,0.1914,14.09,65.79,39.57
511,2202567628,0.9390,0.7676,0.1665,15.61,65.37,40.67
512,2202572629,0.9302,0.7598,0.1372,19.02,65.12,41.89
513,2202577630,0.9175,0.7520,0.1025,23.35,65.12,42.99
514,2202582629,0.9194,0.7402,0.0811,27.80,64.94,44.09
515,2202587628,0.9204,0.7168,0.0625,32.20,65.00,45.00
516,2202592627,0.9189,0.7065,0.0449,35.67,65.00,45.98
517,2202597631,0.9160,0.6904,0.0176,38.23,65.18,46.59
518,2202602628,0.9131,0.6738,0.0107,39.57,65.18,47.20
519,2202607629,0.9214,0.6592,0.0088,39.76,65.49,47.50
520,2202612627,0.9229,0.6348,0.0059,39.09,65.67,47.62
521,2202617629,0.9175,0.6069,0.0298,37.62,65.55,47.44
522,2202622629,0.9033,0.5854,0.0596,34.94,65.37,46.95
523,2202627629,0.8857,0.5874,0.0732,32.26,65.00,46.34
524,2202632628,0.8506,0.5830,0.0786,30.67,65.06,45.98
525,2202637627,0.8535,0.5757,0.1016,29.45,64.88,45.61
526,2202642627,0.8374,0.5845,0.1343,28.35,64.45,45.18
527,2202647629,0.8447,0.6016,0.1460,27.44,64.15,44.94
528,2202652627,0.8311,0.6172,0.1465,27.38,63.78,44.94
529,2202657629,0.8135,0.6279,0.1660,27.50,63.66,44.94
530,2202662628,0.8110,0.6328,0.1943,27.80,63.54,45.37
531,2202667630,0.8198,0.6362,0.1982,27.74,63.23,45.73
532,2202672629,0.8486,0.6299,0.2036,27.93,62.99,46.16
533,2202677629,0.8550,0.6294,0.2002,28.60,62.62,46.34
534,2202682627,0.8550,0.6187,0.1519,30.43,62.74,46.59
535,2202687627,0.8550,0.6143,0.1455,32.62,62.44,46.83
536,2202692627,0.8623,0.5986,0.1538,34.45,62.68,46.89
537,2202697629,0.8706,0.5962,0.1465,35.37,62.62,46.95
538,2202702628,0.8779,0.6030,0.1416,35.85,62.56,46.89
539,2202707629,0.8638,0.6089,0.1318,35.49,62.50,46.77
540,2202712629,0.8628,0.6035,0.1289,34.27,62.38,46.59
541,2202717627,0.8716,0.6104,0.1216,32.38,62.32,46.77
542,2202722627,0.8706,0.6089,0.1201,30.30,62.07,46.89
543,2202727627,0.8584,0.6118,0.1123,28.17,62.13,47.07
544,2202732629,0.8691,0.5957,0.1113,26.10,62.01,47.62
545,2202737629,0.8643,0.6108,0.1304,24.57,62.07,48.23
546,2202742684,0.8477,0.6206,0.1455,23.66,62.07,48.96
547,2202747629,0.8579,0.6157,0.1450,23.54,62.07,50.00
548,2202752627,0.8623,0.6279,0.1553,23.72,61.83,51.22
549,2202757627,0.8496,0.6187,0.1670,24.21,62.13,52.38
550,2202762629,0.8726,0.6084,0.1777,24.88,62.13,53.60
551,2202767628,0.8779,0.6006,0.1826,25.79,62.26,54.76
552,2202772627,0.8979,0.5986,0.1816,26.71,62.32,55.85
553,2202777629,0.9106,0.5972,0.1919,27.68,62.32,56.77
554,2202782629,0.9292,0.6060,0.1973,28.90,62.38,57.38
555,2202787627,0.9517,0.6055,0.1963,30.06,62.38,57.93
556,2202792627,0.9629,0.6074,0.1914,31.04,62.50,58.41
557,2202797629,0.9727,0.6094,0.1860,31.65,62.44,58.78
558,2202802627,0.9766,0.6172,0.1997,31.65,62.38,59.21
559,2202807627,0.9888,0.6187,0.2002,31.28,62.32,59.51
560,2202812629,0.9844,0.6152,0.1875,30.24,62.01,59.70
561,2202817629,0.9795,0.6074,0.2017,28.60,61.77,60.00
562,2202822628,0.9868,0.5903,0.1934,27.13,61.52,60.37
563,2202827629,0.9897,0.5791,0.1826,26.40,61.22,60.85
564,2202832627,0.9873,0.5674,0.1938,26.83,61.10,61.10
565,2202837627,0.9795,0.5552,0.1880,28.41,60.98,61.40
566,2202842629,0.9814,0.5508,0.1802,30.91,60.67,61.71
567,2202847627,0.9844,0.5566,0.1816,34.09,60.61,62.01
568,2202852629,0.9863,0.5669,0.1953,37.74,60.43,62.38
569,2202857627,0.9810,0.5806,0.2031,41.52,60.49,62.68
570,2202862627,0.9639,0.6035,0.1992,44.88,60.43,63.11
571,2202867629,0.9526,0.6250,0.2002,47.20,60.73,63.84
572,2202872628,0.9336,0.6392,0.2056,48.35,61.22,64.88
573,2202877627,0.9072,0.6582,0.1807,48.11,61.65,65.98
574,2202882629,0.8882,0.6689,0.1724,46.89,62.32,67.44
575,2202887627,0.8423,0.6855,0.1626,45.18,63.17,69.21
576,2202892627,0.8345,0.7070,0.1362,43.78,64.45,71.34
577,2202897627,0.8389,0.7207,0.1113,43.29,65.73,73.78
578,2202902629,0.8462,0.7407,0.0991,43.60,67.38,76.40
579,2202907629,0.8550,0.7368,0.0967,44.45,69.09,78.96
580,2202912629,0.8745,0.7114,0.1021,45.18,70.73,81.59
581,2202917677,0.8916,0.6782,0.0996,44.88,72.50,84.09
582,2202922629,0.9141,0.6260,0.1201,42.93,73.90,86.16
583,2202927629,0.9312,0.5825,0.1655,40.06,75.37,87.50
584,2202932629,0.9434,0.5386,0.2158,37.44,76.52,87.50
585,2202937628,0.9600,0.5039,0.2773,35.98,77.07,88.29
586,2202942629,0.9736,0.4819,0.3276,36.16,77.26,87.80
587,2202947629,0.9741,0.4761,0.3418,37.68,77.26,87.99
588,2202952629,0.9688,0.4780,0.3320,40.30,77.20,88.05
589,2202957628,0.9600,0.4902,0.3188,43.05,77.13,88.11
590,2202962629,0.9556,0.5029,0.2866,45.55,77.38,88.54
591,2202967630,0.9536,0.5142,0.2695,47.32,77.80,89.27
592,2202972629,0.9482,0.5215,0.2588,48.11,78.17,90.00
593,2202977628,0.9365,0.5195,0.2695,47.87,78.78,90.98
594,2202982630,0.9341,0.5171,0.2705,46.71,79.45,91.83
595,2202987629,0.9346,0.5117,0.2842,45.24,79.88,92.80
596,2202992629,0.9390,0.5146,0.2866,44.02,80.12,93.78
597,2202997628,0.9478,0.5195,0.2964,43.35,80.55,94.88
598,2203002627,0.9502,0.5234,0.3027,43.41,80.85,95.91
599,2203007627,0.9521,0.5264,0.3096,43.90,81.28,97.13
600,2203012629,0.9536,0.5317,0.3154,43.84,81.40,97.93
601,2203017628,0.9551,0.5190,0.3271,43.23,81.77,98.78
602,2203022627,0.9531,0.5137,0.3271,41.89,82.13,99.70
603,2203027629,0.9438,0.5098,0.3462,40.06,82.13,100.61
604,2203032629,0.9448,0.5103,0.3677,37.93,82.50,101.22
605,2203037996,0.9453,0.4995,0.3853,35.61,82.68,101.95
606,2203042629,0.9346,0.4873,0.4043,33.48,82.26,102.74
607,2203048162,0.9233,0.4722,0.4150,31.34,82.07,103.66
608,2203052631,0.9194,0.4653,0.4258,30.61,81.95,104.27
609,2203057627,0.9180,0.4556,0.4380,30.18,81.52,105.18
610,2203062629,0.9243,0.4497,0.4561,30.18,80.85,106.04
611,2203067628,0.9272,0.4443,0.4546,30.18,80.67,106.89
612,2203072629,0.9390,0.4307,0.4580,29.45,80.18,107.50
613,2203077628,0.9438,0.4072,0.4551,28.11,79.70,108.05
614,2203082629,0.9473,0.3975,0.4482,26.52,79.09,108.48
615,2203087630,0.9600,0.3916,0.4473,24.70,78.41,108.60
616,2203092629,0.9658,0.3818,0.4546,23.17,77.87,108.60
617,2203097628,0.9639,0.3740,0.4531,22.26,77.13,108.66
618,2203102629,0.9575,0.3779,0.4580,22.07,76.52,108.48
619,2203107629,0.9590,0.3765,0.4609,22.44,75.73,108.54
620,2203112629,0.9604,0.3774,0.4697,23.17,74.94,108.54
621,2203117628,0.9546,0.3799,0.4731,23.78,74.39,108.60
622,2203122630,0.9492,0.3735,0.4800,24.02,73.78,108.90
623,2203127629,0.9463,0.3745,0.4829,24.02,72.99,109.21
624,2203132629,0.9463,0.3799,0.4946,23.72,72.32,109.76
625,2203137628,0.9546,0.3843,0.4995,23.29,71.71,110.43
626,2203142629,0.9580,0.3882,0.4961,22.99,70.98,111.10
627,2203147629,0.9526,0.3789,0.4985,22.93,70.30,111.95
628,2203152629,0.9429,0.3701,0.4976,23.05,69.57,112.99
629,2203157628,0.9375,0.3735,0.4927,23.17,68.90,114.21
630,2203162627,0.9365,0.3730,0.4893,23.41,68.23,115.55
631,2203167629,0.9277,0.3647,0.4883,23.54,67.62,116.77
632,2203172628,0.9307,0.3677,0.4951,23.41,67.01,118.05
633,2203177628,0.9287,0.3647,0.5054,22.80,66.59,119.45
634,2203182629,0.9292,0.3672,0.5210,21.65,66.04,120.73
635,2203187629,0.9248,0.3608,0.5312,20.12,65.55,121.89
636,2203192629,0.9150,0.3398,0.5410,18.41,64.70,122.80
637,2203197633,0.9131,0.3257,0.5444,16.65,64.02,123.72
638,2203202628,0.9077,0.3057,0.5381,15.12,63.41,124.51
639,2203207630,0.9062,0.2896,0.5479,13.66,62.93,125.18
640,2203212629,0.9097,0.2749,0.5508,12.62,62.38,125.73
641,2203217629,0.9023,0.2559,0.5474,11.71,62.01,126.16
642,2203222627,0.8960,0.2344,0.5566,11.10,61.46,126.34
643,2203227629,0.8931,0.2173,0.5591,10.55,61.16,126.46
644,2203232627,0.8975,0.2002,0.5688,10.18,61.04,126.59
645,2203237631,0.8931,0.1855,0.5669,9.82,60.55,126.71
646,2203242629,0.8940,0.1875,0.5635,9.45,60.06,126.77
647,2203247629,0.8867,0.1860,0.5703,9.33,59.76,126.89
648,2203252627,0.8770,0.1724,0.5723,9.33,59.33,127.13
649,2203257629,0.8706,0.1655,0.5771,9.51,59.02,127.38
650,2203262629,0.8696,0.1650,0.5820,9.76,58.78,127.68
651,2203267629,0.8735,0.1602,0.5884,9.82,58.54,127.80
652,2203272629,0.8696,0.1548,0.6060,9.88,58.23,128.11
653,2203277628,0.8643,0.1499,0.6108,9.70,57.87,128.35
654,2203282629,0.8481,0.1396,0.6201,9.15,57.62,128.60
655,2203287629,0.8340,0.1274,0.6294,8.11,57.20,128.84
656,2203292630,0.8267,0.1167,0.6504,7.07,56.71,128.96
657,2203297628,0.8237,0.1113,0.6548,6.22,56.04,129.21
658,2203302629,0.8149,0.0972,0.6553,5.43,55.49,129.39
659,2203307629,0.8149,0.0840,0.6558,4.70,54.88,129.09
660,2203312629,0.8120,0.0669,0.6699,4.15,54.33,128.90
661,2203317628,0.8076,0.0537,0.6670,3.54,53.66,128.48
662,2203322627,0.8022,0.0444,0.6729,3.23,53.17,128.05
663,2203327892,0.7969,0.0298,0.6719,3.35,52.68,127.56
664,2203332628,0.7852,0.0342,0.6724,3.84,52.13,127.26
665,2203337628,0.7754,0.0288,0.6714,4.51,51.89,126.71
666,2203342629,0.7637,0.0142,0.6782,4.94,51.71,126.34
667,2203347629,0.7393,0.0088,0.6865,4.94,51.52,125.98
668,2203352627,0.7310,0.0015,0.6934,4.63,51.40,125.67
669,2203357629,0.7368,-0.0015,0.6973,3.66,51.16,125.30
670,2203362629,0.7363,-0.0117,0.7002,3.05,51.04,124.94
671,2203367628,0.7305,-0.0259,0.7046,2.20,50.79,124.57
672,2203372629,0.7251,-0.0420,0.7051,1.34,50.55,124.33
673,2203377627,0.7168,-0.0610,0.7065,1.16,50.18,124.09
674,2203382630,0.7139,-0.0762,0.7021,1.28,49.63,123.90
675,2203387627,0.7139,-0.0869,0.7114,2.13,49.15,123.72
676,2203392629,0.7114,-0.1123,0.7217,3.23,48.35,123.54
677,2203397629,0.7051,-0.1279,0.7231,4.57,47.68,123.05
678,2203402628,0.7012,-0.1401,0.7319,5.73,46.77,122.50
679,2203407627,0.6929,-0.1494,0.7402,6.77,46.10,122.07
680,2203412629,0.6880,-0.1533,0.7441,7.56,45.43,121.46
681,2203417627,0.6787,-0.1616,0.7520,7.99,44.82,120.79
682,2203422629,0.6572,-0.1641,0.7588,8.17,44.21,120.12
683,2203427628,0.6460,-0.1694,0.7632,8.66,43.90,119.51
684,2203432629,0.6436,-0.1685,0.7651,9.39,43.72,118.72
685,2203437630,0.6309,-0.1758,0.7715,10.12,43.78,117.99
686,2203442627,0.6147,-0.1831,0.7695,10.43,43.90,117.13
687,2203447627,0.6025,-0.1909,0.7754,9.94,44.15,116.34
688,2203452627,0.5869,-0.1938,0.7754,8.78,44.63,115.30
689,2203457629,0.5674,-0.1982,0.7759,6.83,45.12,114.57
690,2203462631,0.5503,-0.2026,0.7769,4.70,45.61,113.90
691,2203467628,0.5396,-0.2065,0.7876,2.80,46.04,113.54
692,2203472629,0.5298,-0.2065,0.7886,1.59,46.22,113.23
693,2203477627,0.5269,-0.2144,0.7866,0.85,46.22,112.99
694,2203482629,0.5244,-0.2217,0.7881,0.37,46.34,112.87
695,2203487628,0.5273,-0.2251,0.7871,0.12,46.22,112.74
696,2203492627,0.5225,-0.2275,0.7910,0.24,46.10,112.62
697,2203497627,0.5156,-0.2300,0.7896,0.43,45.85,112.38
698,2203502629,0.5122,-0.2275,0.7861,0.55,45.79,112.26
699,2203507629,0.5039,-0.2261,0.7979,0.79,45.85,112.13
700,2203512629,0.4980,-0.2114,0.8062,0.98,45.79,111.77
701,2203517627,0.4771,-0.2100,0.8140,1.10,45.67,111.46
702,2203522629,0.4453,-0.2183,0.8247,0.79,45.30,111.34
703,2203527627,0.4302,-0.2227,0.8237,0.24,45.18,111.28
704,2203532629,0.4141,-0.2134,0.8379,-0.37,44.94,111.40
705,2203537629,0.4185,-0.2158,0.8574,-0.91,44.63,111.46
706,2203542627,0.4185,-0.2168,0.8467,-2.01,44.63,111.40
707,2203547627,0.4155,-0.2246,0.8618,-3.72,44.70,111.52
708,2203552629,0.4043,-0.2349,0.8667,-5.85,44.63,111.46
709,2203557627,0.4009,-0.2354,0.8711,-8.29,44.82,111.28
710,2203562627,0.4004,-0.2358,0.8804,-10.61,44.82,111.10
711,2203567629,0.3960,-0.2573,0.8809,-12.93,44.82,110.73
712,2203572629,0.3755,-0.2710,0.8647,-15.06,44.94,110.49
713,2203577628,0.3589,-0.2910,0.8584,-16.59,44.94,110.30
714,2203582629,0.3604,-0.3071,0.8530,-17.26,44.76,109.94
715,2203587628,0.3516,-0.3213,0.8564,-16.83,44.51,109.51
716,2203592629,0.3496,-0.3369,0.8530,-16.46,44.21,109.02
717,2203597629,0.3452,-0.3433,0.8496,-16.40,43.90,108.29
718,2203602629,0.3403,-0.3540,0.8501,-16.59,43.66,107.62
719,2203607628,0.3442,-0.3594,0.8594,-16.77,43.29,106.95
720,2203612630,0.3452,-0.3560,0.8657,-16.83,42.68,105.98
721,2203617629,0.3403,-0.3569,0.8677,-16.34,42.13,105.24
722,2203622629,0.3203,-0.3604,0.8633,-15.91,41.83,104.39
723,2203627628,0.3086,-0.3628,0.8438,-15.79,41.59,103.54
724,2203632627,0.3018,-0.3799,0.8555,-15.98,41.22,102.80
725,2203637631,0.2891,-0.3857,0.8555,-16.16,41.04,102.13
726,2203642628,0.2749,-0.3936,0.8540,-16.40,40.98,101.65
727,2203647629,0.2568,-0.3975,0.8506,-16.46,40.91,101.04
728,2203652627,0.2485,-0.4014,0.8579,-16.65,41.10,100.49
729,2203657629,0.2397,-0.4111,0.8569,-17.07,41.28,99.82
730,2203662629,0.2310,-0.4180,0.8599,-17.32,41.46,99.21
731,2203667629,0.2241,-0.4263,0.8564,-17.87,41.59,98.60
732,2203672629,0.2119,-0.4370,0.8589,-18.60,41.71,98.17
733,2203677673,0.2095,-0.4434,0.8628,-18.66,41.52,97.68
734,2203682627,0.2070,-0.4521,0.8750,-18.05,41.52,97.13
735,2203687627,0.2036,-0.4653,0.8755,-16.95,41.22,96.52
736,2203692628,0.1880,-0.4775,0.8735,-16.22,41.04,95.79
737,2203697629,0.1743,-0.4897,0.8604,-15.85,41.04,94.88
738,2203702629,0.1738,-0.4917,0.8555,-16.04,40.91,93.90
739,2203707628,0.1748,-0.4966,0.8442,-16.34,41.16,92.68
740,2203712629,0.1699,-0.5044,0.8374,-16.46,41.34,91.46
741,2203717628,0.1504,-0.5098,0.8340,-16.59,41.65,89.88
742,2203722629,0.1377,-0.5215,0.8301,-16.59,42.13,88.48
743,2203727629,0.1289,-0.5210,0.8345,-16.16,42.68,86.83
744,2203732629,0.1318,-0.5190,0.8311,-15.43,43.29,86.22
745,2203737628,0.1328,-0.5195,0.8262,-14.82,44.02,84.88
746,2203742630,0.1509,-0.5200,0.8218,-14.39,44.88,83.66
747,2203747629,0.1548,-0.5186,0.8369,-14.15,45.55,82.20
748,2203752629,0.1372,-0.5063,0.8491,-14.15,45.98,80.61
749,2203757628,0.0928,-0.5049,0.8643,-14.57,46.16,79.21
750,2203762629,0.0557,-0.5190,0.8779,-14.82,45.91,78.23
751,2203767629,0.0322,-0.5049,0.8979,-14.21,45.12,77.62
752,2203772629,0.0098,-0.4902,0.9077,-12.56,44.70,77.13
753,2203777628,-0.0034,-0.4907,0.9033,-11.10,44.39,76.71
754,2203782629,-0.0161,-0.4907,0.8979,-10.73,44.21,76.28
755,2203787629,-0.0308,-0.4902,0.9033,-11.77,43.96,75.98
756,2203792629,-0.0317,-0.4995,0.9058,-13.66,43.84,75.43
757,2203797628,-0.0400,-0.5103,0.9082,-15.85,43.54,74.76
758,2203802630,-0.0435,-0.5103,0.9062,-17.99,43.41,73.90
759,2203807629,-0.0278,-0.5049,0.9062,-20.00,43.17,72.87
760,2203812629,-0.0430,-0.5161,0.8975,-21.83,42.99,71.52
761,2203817628,-0.0581,-0.5215,0.8940,-22.87,42.68,70.91
762,2203822629,-0.0674,-0.5312,0.8940,-23.96,42.32,69.76
763,2203827629,-0.0737,-0.5322,0.8950,-24.21,42.07,69.21
764,2203832629,-0.0762,-0.5332,0.8799,-24.15,41.77,68.23
765,2203837627,-0.0771,-0.5308,0.8638,-24.09,41.65,67.56
766,2203842631,-0.0771,-0.5356,0.8599,-23.78,41.16,66.46
767,2203847628,-0.0850,-0.5474,0.8618,-23.60,40.79,65.37
768,2203852629,-0.1128,-0.5664,0.8711,-23.41,40.12,64.57
769,2203857628,-0.1431,-0.5747,0.8735,-23.35,39.27,63.84
770,2203862629,-0.1582,-0.5923,0.8721,-23.11,38.29,63.35
771,2203867629,-0.1567,-0.6025,0.8765,-22.56,36.95,62.68
772,2203872629,-0.1533,-0.6118,0.8735,-21.95,35.73,61.95
773,2203877628,-0.1572,-0.6274,0.8662,-21.40,34.63,60.98
774,2203882629,-0.1533,-0.6357,0.8564,-21.16,33.54,59.76
775,2203887629,-0.1494,-0.6382,0.8584,-20.49,32.68,58.35
776,2203892629,-0.1548,-0.6357,0.8525,-19.94,31.83,56.65
777,2203897628,-0.1704,-0.6470,0.8540,-19.51,31.28,55.00
778,2203902629,-0.1719,-0.6553,0.8384,-19.39,30.67,53.35
779,2203907629,-0.1631,-0.6592,0.8296,-19.63,30.18,51.59
780,2203912629,-0.1587,-0.6592,0.8257,-19.70,29.82,49.76
781,2203917628,-0.1538,-0.6650,0.8252,-19.70,29.70,47.99
782,2203922628,-0.1543,-0.6665,0.8247,-19.57,29.27,46.10
783,2203927748,-0.1650,-0.6626,0.8174,-19.15,29.21,44.39
784,2203932627,-0.1802,-0.6592,0.8081,-18.72,29.21,42.93
785,2203937629,-0.1929,-0.6499,0.8047,-17.99,29.33,41.59
786,2203942640,-0.2188,-0.6396,0.8096,-16.65,29.39,40.43
787,2203947630,-0.2397,-0.6401,0.8140,-15.18,29.27,39.21
788,2203952630,-0.2632,-0.6489,0.8164,-13.78,29.09,38.05
789,2203957627,-0.2690,-0.6553,0.8096,-12.87,28.90,36.89
790,2203962629,-0.2812,-0.6460,0.8071,-12.68,28.66,35.85
791,2203967630,-0.2847,-0.6499,0.8125,-12.56,28.17,34.76
792,2203972627,-0.2866,-0.6519,0.8164,-12.56,27.74,33.60
793,2203977629,-0.2876,-0.6650,0.8130,-12.50,27.01,32.38
794,2203982627,-0.2842,-0.6851,0.8032,-12.56,26.22,31.40
795,2203987629,-0.2690,-0.6865,0.7930,-12.26,25.43,30.43
796,2203992628,-0.2471,-0.6816,0.7949,-11.59,24.88,29.39
797,2203997630,-0.2363,-0.6772,0.7949,-10.67,24.27,28.17
798,2204002627,-0.2358,-0.6851,0.7856,-10.24,23.90,26.95
799,2204007631,-0.2339,-0.6841,0.7749,-10.24,23.66,25.79
800,2204012627,-0.2197,-0.6851,0.7695,-10.18,23.05,24.63
801,2204017629,-0.2144,-0.6831,0.7749,-9.39,22.56,23.66
802,2204022628,-0.2158,-0.6851,0.7900,-7.44,22.07,22.74
803,2204027627,-0.2236,-0.6973,0.7827,-5.18,21.34,21.71
804,2204032627,-0.2212,-0.7075,0.7793,-3.17,20.55,20.49
805,2204037629,-0.2217,-0.7192,0.7637,-1.95,20.06,19.09
806,2204042627,-0.2256,-0.7285,0.7671,-1.16,19.27,17.44
807,2204047627,-0.2163,-0.7363,0.7739,-0.37,18.78,15.55
808,2204052627,-0.2036,-0.7441,0.7744,0.61,18.17,13.41
809,2204057629,-0.2056,-0.7529,0.7593,1.40,17.56,11.22
810,2204062628,-0.2188,-0.7734,0.7593,1.95,17.01,9.02
811,2204067629,-0.2163,-0.7759,0.7524,2.32,16.59,7.13
812,2204072627,-0.2070,-0.7607,0.7627,3.23,16.04,5.18
813,2204077627,-0.1992,-0.7563,0.7695,4.57,15.73,3.29
814,2204082627,-0.2114,-0.7583,0.7607,6.04,15.49,1.52
815,2204087627,-0.2144,-0.7568,0.7681,7.26,15.49,-0.43
816,2204092627,-0.2148,-0.7642,0.7856,8.17,15.24,-2.20
817,2204097627,-0.2163,-0.7690,0.7900,9.09,15.24,-4.27
818,2204102627,-0.2114,-0.7607,0.7900,10.00,15.30,-6.34
819,2204107627,-0.2217,-0.7656,0.8003,10.79,15.61,-8.48
820,2204112627,-0.2158,-0.8003,0.8101,11.10,15.98,-10.67
821,2204117628,-0.2188,-0.7852,0.7720,11.10,16.10,-12.80
822,2204122629,-0.2412,-0.7676,0.7622,12.26,16.40,-15.06
823,2204127628,-0.2441,-0.7646,0.7993,14.21,16.71,-17.20
824,2204132627,-0.2534,-0.7832,0.8062,16.04,16.89,-19.27
825,2204137629,-0.2729,-0.7905,0.8135,17.07,16.95,-21.40
826,2204142629,-0.2852,-0.7778,0.8237,17.07,17.01,-23.66
827,2204147627,-0.2871,-0.7471,0.8232,16.28,17.01,-25.73
828,2204152627,-0.2881,-0.7329,0.8252,14.63,17.07,-27.56
829,2204157627,-0.3003,-0.7192,0.8252,12.07,17.38,-29.27
830,2204162627,-0.3071,-0.7163,0.8145,9.27,17.62,-30.61
831,2204167627,-0.2793,-0.6992,0.8101,7.26,17.44,-31.77
832,2204172627,-0.2627,-0.6826,0.7983,6.52,17.68,-32.68
833,2204177627,-0.2612,-0.6812,0.7861,7.13,17.93,-33.48
834,2204182627,-0.2588,-0.6963,0.7739,7.99,18.17,-34.15
835,2204187627,-0.2642,-0.7119,0.7622,8.90,18.23,-34.70
836,2204192627,-0.2681,-0.7378,0.7651,9.70,18.17,-35.30
837,2204197628,-0.2646,-0.7549,0.7632,11.10,17.99,-36.10
838,2204202627,-0.2588,-0.7676,0.7783,13.11,17.62,-37.13
839,2204207630,-0.2588,-0.7861,0.7788,15.61,17.01,-38.41
840,2204212630,-0.2603,-0.8071,0.7827,17.68,16.34,-39.82
841,2204217627,-0.2524,-0.8169,0.7896,19.27,15.24,-41.65
842,2204222627,-0.2461,-0.8096,0.8013,20.55,14.33,-43.72
843,2204227627,-0.2568,-0.7939,0.8169,22.07,13.35,-46.10
844,2204232631,-0.2725,-0.7891,0.8184,23.11,12.32,-48.54
845,2204237629,-0.2930,-0.7910,0.8159,23.29,11.46,-50.98
846,2204242627,-0.3057,-0.7915,0.8184,22.68,10.43,-53.41
847,2204247629,-0.3096,-0.7900,0.8325,22.07,9.21,-55.91
848,2204252630,-0.3091,-0.7773,0.8301,22.07,7.80,-58.29
849,2204257627,-0.3145,-0.7671,0.8228,22.44,6.46,-60.67
850,2204262627,-0.3091,-0.7700,0.8018,22.38,5.30,-62.68
851,2204267629,-0.2939,-0.7729,0.7910,22.20,3.90,-64.51
852,2204272627,-0.2827,-0.7588,0.7866,22.38,2.74,-66.16
853,2204277628,-0.2544,-0.7451,0.7803,22.80,1.59,-67.93
854,2204282627,-0.2388,-0.7373,0.7720,23.84,0.24,-69.57
855,2204287629,-0.2280,-0.7368,0.7568,24.82,-0.61,-71.40
856,2204292628,-0.2124,-0.7349,0.7568,26.04,-1.89,-73.29
857,2204297636,-0.1865,-0.7168,0.7749,27.74,-3.23,-75.30
858,2204302629,-0.1826,-0.6978,0.7773,30.30,-4.51,-77.50
859,2204307629,-0.1943,-0.6885,0.7822,32.20,-5.91,-80.12
860,2204312629,-0.2085,-0.6924,0.7983,32.93,-7.32,-82.74
861,2204317630,-0.2173,-0.6812,0.8086,32.74,-8.84,-85.24
862,2204322629,-0.2090,-0.6685,0.8340,32.62,-10.49,-87.93
863,2204327629,-0.2036,-0.6382,0.8472,32.87,-12.38,-90.85
864,2204332629,-0.2017,-0.6245,0.8301,32.99,-14.09,-93.90
865,2204337628,-0.2153,-0.6245,0.8086,33.05,-15.67,-96.83
866,2204342627,-0.2188,-0.6118,0.7974,32.99,-17.07,-99.63
867,2204347629,-0.2153,-0.6011,0.8071,33.60,-18.23,-102.56
868,2204352627,-0.2153,-0.5991,0.8071,34.88,-19.33,-105.55
869,2204357629,-0.2227,-0.5957,0.8042,35.85,-20.24,-108.72
870,2204362629,-0.2285,-0.5952,0.7808,36.22,-21.04,-111.59
871,2204367629,-0.2437,-0.5879,0.7681,35.85,-21.52,-114.33
872,2204372627,-0.2578,-0.5801,0.7617,35.49,-22.07,-116.83
873,2204377629,-0.2690,-0.5640,0.7549,35.61,-22.50,-119.33
874,2204382628,-0.2915,-0.5430,0.7637,36.22,-23.17,-121.71
875,2204387629,-0.3223,-0.5215,0.7632,37.01,-23.90,-124.21
876,2204392629,-0.3496,-0.5078,0.7466,37.32,-25.00,-126.77
877,2204397627,-0.3701,-0.4893,0.7485,37.26,-26.46,-129.15
878,2204402627,-0.3784,-0.4570,0.7593,37.38,-28.05,-131.83
879,2204407630,-0.3789,-0.4312,0.7554,38.23,-30.00,-134.63
880,2204412629,-0.3916,-0.4028,0.7524,39.33,-32.20,-137.62
881,2204417629,-0.4102,-0.3887,0.7529,40.06,-34.39,-140.79
882,2204422627,-0.4180,-0.3804,0.7627,40.73,-36.77,-144.27
883,2204427630,-0.4238,-0.3735,0.7754,41.22,-39.45,-148.11
884,2204432628,-0.4292,-0.3716,0.7773,41.95,-42.20,-152.44
885,2204437629,-0.4502,-0.3706,0.7842,42.62,-44.51,-157.20
886,2204442628,-0.4692,-0.3687,0.7578,42.87,-46.52,-162.07
887,2204447629,-0.4985,-0.3818,0.7759,42.38,-48.35,-167.38
888,2204452627,-0.5044,-0.3770,0.7202,40.00,-49.94,-173.23
889,2204457630,-0.5073,-0.3594,0.7271,37.20,-51.46,-179.70
890,2204462629,-0.5747,-0.3418,0.6997,32.07,-52.74,-186.28
891,2204467629,-0.5889,-0.3525,0.7979,25.37,-53.72,-193.29
892,2204472630,-0.6382,-0.3384,0.7788,16.46,-54.27,-200.85
893,2204477628,-0.6313,-0.3237,0.6504,7.80,-54.88,-208.84
894,2204482627,-0.6870,-0.2988,0.6348,3.11,-54.57,-216.59
895,2204487627,-0.7271,-0.2476,0.6123,3.54,-53.60,-224.09
896,2204492630,-0.7212,-0.2080,0.5547,8.35,-53.17,-231.46
897,2204497628,-0.7622,-0.1279,0.5781,16.83,-52.99,-238.35
898,2204502629,-0.7734,-0.0566,0.5928,29.76,-53.05,-245.18
899,2204507629,-0.7900,-0.0601,0.5645,42.80,-54.27,-252.07
900,2204512628,-0.8101,-0.0737,0.5957,53.29,-56.04,-258.90
901,2204517630,-0.8145,-0.0605,0.6118,60.55,-58.11,-266.16
902,2204522627,-0.8237,-0.0151,0.5757,65.49,-60.43,-273.96
903,2204527627,-0.8594,0.0537,0.5547,67.56,-63.05,-282.13
904,2204532627,-0.8423,0.1147,0.5615,67.50,-65.43,-290.37
905,2204537627,-0.8428,0.2031,0.5649,65.49,-67.68,-298.84
906,2204542627,-0.8794,0.2837,0.5928,61.59,-70.00,-307.38
907,2204547627,-0.9404,0.3413,0.5737,56.65,-72.32,-316.10
908,2204552627,-0.9922,0.3853,0.6021,51.22,-74.21,-324.82
909,2204557627,-1.0117,0.4492,0.5884,45.85,-75.79,-333.78
910,2204562627,-1.0225,0.5215,0.5688,41.34,-77.13,-342.50
911,2204567627,-1.0103,0.5947,0.5654,37.68,-78.35,-351.40
912,2204573028,-0.9883,0.6714,0.5610,34.94,-79.21,-360.30
913,2204577629,-0.9717,0.7495,0.5508,33.23,-80.24,-369.09
914,2204582765,-0.9780,0.8242,0.5356,32.44,-81.16,-377.56
915,2204587627,-0.9780,0.9038,0.5337,32.32,-82.20,-385.67
916,2204592627,-0.9600,0.9854,0.5317,33.54,-83.35,-393.66
917,2204597627,-0.9238,1.0894,0.5352,36.46,-84.70,-401.46
918,2204602629,-0.9189,1.1670,0.5308,40.67,-86.40,-409.15
919,2204607628,-0.9272,1.2397,0.5303,44.82,-88.17,-416.52
920,2204612629,-0.8970,1.3398,0.5342,47.68,-90.49,-423.78
921,2204617652,-0.8677,1.4512,0.5293,48.78,-93.05,-430.91
922,2204622630,-0.8501,1.5732,0.5327,47.87,-96.10,-437.93
923,2204627631,-0.8457,1.6733,0.5317,44.70,-98.90,-444.51
924,2204632630,-0.8291,1.7856,0.5151,39.70,-101.59,-450.85
925,2204637627,-0.7578,1.9155,0.5049,33.11,-104.33,-457.01
926,2204642627,-0.7144,2.0449,0.5112,26.52,-106.65,-462.93
927,2204647627,-0.6963,2.1572,0.5171,20.06,-108.72,-468.17
928,2204652627,-0.6655,2.2627,0.5029,14.51,-110.43,-472.62
929,2204657627,-0.6152,2.3662,0.4946,10.85,-112.13,-476.34
930,2204662629,-0.5605,2.4634,0.4961,9.51,-113.72,-479.57
931,2204667629,-0.4810,2.5625,0.4854,10.91,-115.55,-482.62
932,2204672629,-0.4043,2.6289,0.4688,13.84,-117.38,-485.00
933,2204677630,-0.3555,2.6899,0.4468,17.20,-119.39,-486.71
934,2204682629,-0.2891,2.7749,0.4282,20.73,-121.59,-487.80
935,2204687627,-0.2026,2.8838,0.4062,23.66,-123.78,-488.41
936,2204692629,-0.1328,2.9980,0.4004,26.10,-126.04,-488.11
937,2204697629,-0.0752,3.1255,0.3999,27.38,-128.11,-487.07
938,2204702629,-0.0200,3.2256,0.3848,27.01,-129.76,-484.63
939,2204707628,0.0269,3.3281,0.3628,24.82,-131.22,-481.16
940,2204712629,0.0728,3.4292,0.3613,22.01,-132.44,-476.52
941,2204717846,0.1284,3.5225,0.3423,18.84,-133.05,-470.98
942,2204722629,0.1631,3.5747,0.3267,15.49,-133.48,-464.76
943,2204727629,0.1909,3.6113,0.2969,11.59,-133.29,-457.13
944,2204732696,0.2534,3.6372,0.2705,6.95,-133.23,-448.84
945,2204737630,0.2964,3.6396,0.2515,2.68,-132.68,-439.88
946,2204742628,0.3442,3.6362,0.2114,-1.40,-132.20,-429.94
947,2204747627,0.4390,3.6558,0.1597,-4.94,-131.89,-419.45
948,2204752627,0.5210,3.6597,0.1299,-7.68,-131.46,-407.62
949,2204757627,0.5649,3.6660,0.0830,-9.63,-131.04,-394.57
950,2204762628,0.6235,3.6768,0.0444,-10.98,-130.67,-380.37
951,2204767631,0.6743,3.6738,0.0083,-11.59,-130.24,-365.30
952,2204772628,0.7236,3.6714,-0.0020,-10.73,-129.33,-349.39
953,2204777628,0.7744,3.6431,0.0020,-7.93,-128.11,-333.11
954,2204782629,0.8184,3.5830,-0.0020,-3.60,-126.59,-316.83
955,2204787628,0.8652,3.4917,0.0034,1.04,-124.76,-300.49
956,2204792628,0.9219,3.3896,0.0190,5.30,-123.11,-284.88
957,2204797629,0.9795,3.2603,0.0312,8.66,-121.34,-270.49
958,2204802628,1.0410,3.1021,0.0518,10.24,-119.94,-257.13
959,2204807629,1.1050,2.9521,0.0649,9.94,-118.78,-245.18
960,2204812627,1.1714,2.8276,0.0947,7.56,-117.87,-234.82
961,2204817630,1.2144,2.7217,0.1206,3.17,-117.01,-225.67
962,2204822628,1.2271,2.6265,0.1245,-4.27,-115.85,-217.26
963,2204827627,1.2466,2.5312,0.1196,-14.88,-114.88,-209.27
964,2204832627,1.2847,2.4390,0.1055,-27.87,-113.60,-201.40
965,2204837629,1.2974,2.3638,0.0864,-40.37,-112.20,-193.78
966,2204842627,1.2866,2.2939,0.0728,-49.21,-110.73,-186.28
967,2204847707,1.2671,2.2231,0.0654,-52.56,-108.90,-178.66
968,2204852629,1.2529,2.1416,0.0576,-50.43,-107.01,-170.98
969,2204857679,1.2520,2.0596,0.0566,-43.48,-105.37,-163.11
970,2204862629,1.2397,1.9727,0.0610,-33.72,-103.72,-155.30
971,2204867627,1.2300,1.8906,0.0537,-22.74,-102.50,-148.05
972,2204873023,1.2188,1.8149,0.0693,-10.98,-101.22,-139.88
973,2204877629,1.1914,1.7427,0.0854,-5.61,-100.55,-134.70
974,2204882628,1.1382,1.6611,0.0830,-3.05,-99.70,-128.41
975,2204887629,1.1113,1.6099,0.0889,-4.88,-98.96,-122.07
976,2204892627,1.1064,1.5796,0.1006,-9.88,-97.80,-116.34
977,2204897631,1.0752,1.5435,0.1089,-16.52,-96.59,-110.79
978,2204902628,1.0283,1.5049,0.1011,-24.15,-94.51,-105.49
979,2204907629,1.0049,1.4800,0.0889,-30.98,-92.68,-99.82
980,2204912627,1.0132,1.4624,0.0942,-35.37,-89.63,-94.51
981,2204917629,0.9932,1.4399,0.0938,-36.89,-86.65,-89.27
982,2204922628,0.9653,1.4058,0.0859,-36.46,-83.60,-83.84
983,2204927627,0.9556,1.3535,0.0869,-34.76,-80.61,-78.60
984,2204932629,0.9644,1.3066,0.0947,-32.20,-77.80,-73.60
985,2204937628,0.9756,1.2646,0.1074,-28.96,-75.30,-69.02
986,2204942629,0.9678,1.2061,0.1196,-25.79,-72.99,-64.88
987,2204947629,0.9531,1.1411,0.1396,-23.72,-70.91,-61.10
988,2204952628,0.9526,1.0933,0.1450,-22.93,-69.21,-57.93
989,2204957629,0.9443,1.0542,0.1738,-23.23,-67.87,-55.24
990,2204962629,0.9048,1.0181,0.1885,-24.33,-66.40,-52.93
991,2204967629,0.8687,0.9956,0.2051,-26.16,-64.82,-50.79
992,2204972629,0.8301,0.9741,0.2231,-28.41,-63.11,-48.60
993,2204977627,0.7788,0.9502,0.2241,-31.16,-61.40,-46.34
994,2204982627,0.7461,0.9453,0.2339,-33.35,-59.63,-43.84
995,2204987629,0.7148,0.9424,0.2490,-34.45,-57.56,-41.34
996,2204992629,0.6821,0.9302,0.2632,-34.02,-55.67,-38.60
997,2204997629,0.6694,0.9219,0.2769,-32.01,-53.90,-36.10
998,2205002627,0.6709,0.9111,0.2896,-29.21,-52.01,-33.72
999,2205007629,0.6621,0.8960,0.2959,-26.10,-50.43,-31.46
1000,2205012628,0.6567,0.8784,0.3032,-22.62,-49.21,-29.39
1001,2205017629,0.6577,0.8638,0.3174,-19.21,-48.29,-27.68
1002,2205022628,0.6631,0.8486,0.3354,-15.67,-47.38,-26.22
1003,2205027630,0.6577,0.8394,0.3467,-12.50,-46.95,-25.00
1004,2205032628,0.6509,0.8354,0.3594,-10.18,-46.46,-24.09
1005,2205037629,0.6338,0.8306,0.3711,-8.84,-46.04,-23.23
1006,2205042627,0.6104,0.8267,0.3765,-8.35,-45.61,-22.50
1007,2205047629,0.5835,0.8301,0.3809,-9.09,-44.94,-21.71
1008,2205052628,0.5361,0.8325,0.3892,-10.61,-44.09,-20.73
1009,2205057629,0.4795,0.8433,0.3818,-12.62,-42.99,-19.57
1010,2205062627,0.4336,0.8477,0.3872,-14.70,-41.77,-17.99
1011,2205067627,0.4106,0.8613,0.3882,-16.46,-40.43,-16.34
1012,2205072629,0.4038,0.8701,0.3901,-17.32,-38.90,-14.51
1013,2205077817,0.3945,0.8691,0.4004,-16.71,-37.26,-12.74
1014,2205082629,0.3823,0.8618,0.3984,-14.88,-35.43,-10.85
1015,2205087628,0.3726,0.8560,0.4077,-11.95,-34.09,-8.84
1016,2205092632,0.3735,0.8442,0.4048,-8.23,-32.50,-7.13
1017,2205097629,0.3818,0.8462,0.4229,-4.15,-31.28,-5.67
1018,2205102627,0.3892,0.8286,0.4287,-0.61,-29.82,-4.57
1019,2205107631,0.3921,0.8130,0.4375,2.56,-28.41,-3.48
1020,2205112629,0.3970,0.8091,0.4512,3.72,-27.62,-2.80
1021,2205117629,0.3970,0.8032,0.4614,4.21,-26.46,-2.32
1022,2205122629,0.4028,0.8057,0.4756,3.72,-25.49,-2.13
1023,2205127630,0.3853,0.7998,0.4912,2.38,-24.27,-2.01
1024,2205132629,0.3696,0.7959,0.4863,0.18,-23.17,-2.13
1025,2205137628,0.3608,0.8003,0.4922,-2.32,-22.20,-2.26
1026,2205142629,0.3462,0.8037,0.5078,-4.45,-21.10,-2.44
1027,2205147629,0.3242,0.8013,0.5034,-5.91,-20.06,-2.38
1028,2205152629,0.3057,0.8018,0.5117,-6.71,-18.96,-2.50
1029,2205157628,0.2974,0.8105,0.5151,-6.65,-17.93,-2.38
1030,2205162629,0.2832,0.8022,0.5127,-6.28,-16.95,-2.26
1031,2205167628,0.2627,0.7979,0.5117,-5.73,-15.85,-1.95
1032,2205172629,0.2568,0.7969,0.5122,-5.06,-15.00,-1.71
1033,2205177688,0.2603,0.8066,0.5093,-4.02,-14.15,-1.40
1034,2205182629,0.2632,0.8091,0.5171,-2.80,-13.41,-1.22
1035,2205187628,0.2559,0.8057,0.5093,-1.34,-12.62,-1.16
1036,2205192628,0.2563,0.8091,0.5039,0.06,-11.89,-0.67
1037,2205197655,0.2666,0.8149,0.5068,1.89,-11.34,-0.24
1038,2205202631,0.2744,0.8213,0.5078,3.78,-10.67,0.12
1039,2205207629,0.2666,0.8247,0.5044,5.85,-10.12,0.43
1040,2205212627,0.2598,0.8325,0.5044,7.74,-9.57,0.73
1041,2205217629,0.2593,0.8330,0.5005,9.51,-9.21,0.91
1042,2205222628,0.2617,0.8330,0.5107,11.22,-8.60,1.10
1043,2205227630,0.2524,0.8389,0.5200,12.87,-7.93,1.10
1044,2205232627,0.2451,0.8486,0.5269,14.27,-7.20,0.98
1045,2205237629,0.2192,0.8521,0.5327,14.76,-6.52,0.79
1046,2205242628,0.2026,0.8525,0.5337,14.27,-5.79,0.67
1047,2205247629,0.2012,0.8560,0.5400,12.99,-5.06,0.55
1048,2205252627,0.1904,0.8599,0.5459,11.34,-4.39,0.49
1049,2205257629,0.1855,0.8589,0.5532,9.63,-3.66,0.49
1050,2205262628,0.1934,0.8599,0.5493,7.68,-2.80,0.30
1051,2205267629,0.1870,0.8555,0.5527,6.10,-2.01,0.30
1052,2205272629,0.1768,0.8511,0.5591,5.00,-1.34,0.24
1053,2205277629,0.1855,0.8540,0.5493,4.76,-0.55,0.18
1054,2205282628,0.1860,0.8574,0.5547,5.30,0.12,0.06
1055,2205287629,0.1899,0.8599,0.5571,6.28,0.98,0.00
1056,2205292627,0.1895,0.8613,0.5474,7.80,1.71,-0.12
1057,2205297629,0.1904,0.8647,0.5425,9.15,2.13,-0.18
1058,2205302628,0.1855,0.8628,0.5503,10.37,2.80,-0.12
1059,2205307627,0.1777,0.8608,0.5508,11.34,3.41,-0.12
1060,2205312629,0.1699,0.8721,0.5508,12.32,3.84,-0.12
1061,2205317629,0.1621,0.8716,0.5571,13.23,4.45,-0.37
1062,2205322628,0.1509,0.8706,0.5669,13.35,5.06,-0.30
1063,2205327627,0.1392,0.8657,0.5674,12.62,5.49,-0.18
1064,2205332629,0.1323,0.8638,0.5688,11.59,5.85,-0.18
1065,2205337630,0.1367,0.8594,0.5762,10.67,6.28,-0.12
1066,2205342628,0.1406,0.8589,0.5801,10.30,6.77,-0.18
1067,2205347629,0.1533,0.8569,0.5859,10.79,6.89,-0.24
1068,2205352627,0.1611,0.8545,0.5879,11.77,7.13,-0.43
1069,2205357629,0.1655,0.8525,0.5864,12.80,7.26,-0.79
1070,2205362631,0.1675,0.8467,0.5938,13.72,7.44,-1.10
1071,2205367628,0.1719,0.8540,0.5962,14.21,7.38,-1.46
1072,2205372627,0.1729,0.8574,0.6035,14.39,7.38,-1.95
1073,2205377629,0.1704,0.8652,0.6099,14.33,7.44,-2.44
1074,2205382628,0.1689,0.8677,0.6064,13.66,7.50,-2.87
1075,2205387629,0.1475,0.8721,0.6040,12.93,7.56,-3.05
1076,2205392627,0.1445,0.8789,0.6030,12.07,7.93,-3.05
1077,2205397629,0.1328,0.8862,0.6084,11.52,8.05,-2.87
1078,2205402628,0.1274,0.8936,0.6011,11.46,8.35,-2.56
1079,2205407629,0.1187,0.8960,0.5991,12.07,8.54,-2.13
1080,2205412627,0.1230,0.8931,0.6060,12.87,9.02,-1.59
1081,2205417629,0.1265,0.8896,0.5986,14.02,9.27,-1.10
1082,2205422628,0.1299,0.8882,0.5933,15.24,9.45,-0.67
1083,2205427629,0.1411,0.8823,0.5942,16.71,9.51,-0.49
1084,2205432628,0.1528,0.8838,0.5952,17.74,9.70,-0.43
1085,2205437629,0.1602,0.8804,0.6030,18.23,9.57,-0.73
1086,2205442628,0.1650,0.8804,0.6074,17.80,9.70,-1.10
1087,2205447629,0.1641,0.8853,0.6089,16.22,9.70,-1.71
1088,2205452627,0.1616,0.8862,0.6162,14.02,9.76,-2.13
1089,2205457629,0.1567,0.8921,0.6167,11.34,9.94,-2.62
1090,2205462628,0.1455,0.8936,0.6216,8.72,10.24,-3.11
1091,2205467629,0.1401,0.8955,0.6187,6.65,10.37,-3.29
1092,2205472627,0.1377,0.9004,0.6157,5.85,10.61,-3.48
1093,2205477690,0.1372,0.8994,0.6201,6.10,10.73,-3.48
1094,2205482628,0.1318,0.8979,0.6128,7.38,10.67,-3.54
1095,2205487629,0.1309,0.8916,0.6104,9.21,10.49,-3.41
1096,2205492627,0.1328,0.8862,0.6108,11.28,10.30,-3.29
1097,2205497629,0.1362,0.8823,0.6074,13.54,10.12,-3.17
1098,2205502628,0.1377,0.8843,0.6069,15.30,9.70,-3.17
1099,2205507629,0.1377,0.8867,0.5996,16.65,9.21,-3.23
1100,2205512627,0.1353,0.8931,0.5967,17.38,9.09,-3.23
1101,2205517629,0.1279,0.9019,0.5986,17.26,8.96,-3.23
1102,2205522628,0.1230,0.9077,0.5972,16.52,8.66,-3.17
1103,2205527629,0.1143,0.9189,0.5962,15.37,8.60,-2.99
1104,2205532628,0.1162,0.9326,0.5972,14.02,8.54,-2.87
1105,2205537629,0.1060,0.9385,0.5913,12.62,8.60,-2.56
1106,2205542628,0.0889,0.9380,0.5938,11.22,8.96,-2.13
1107,2205547629,0.0928,0.9419,0.5986,9.76,9.02,-1.59
1108,2205552627,0.0996,0.9409,0.5923,8.54,9.39,-1.10
1109,2205557627,0.0967,0.9355,0.5903,7.56,9.51,-0.61
1110,2205562629,0.0947,0.9277,0.5923,6.83,9.70,-0.30
1111,2205567629,0.0977,0.9268,0.5894,6.52,9.76,0.12
1112,2205572629,0.1079,0.9224,0.5942,6.77,9.82,0.37
1113,2205577628,0.1084,0.9092,0.5957,7.50,9.57,0.43
1114,2205582629,0.1133,0.9019,0.5869,8.48,9.51,0.55
1115,2205587627,0.1206,0.8931,0.5981,9.76,9.15,0.61
1116,2205592628,0.1260,0.8916,0.5962,11.16,8.90,0.49
1117,2205597629,0.1343,0.8872,0.5928,12.56,8.54,0.24
1118,2205602628,0.1377,0.8867,0.5952,13.90,8.17,-0.06
1119,2205607629,0.1323,0.8862,0.6016,14.57,7.68,-0.55
1120,2205612629,0.1348,0.8911,0.5923,14.33,7.26,-0.98
1121,2205617627,0.1279,0.8940,0.5854,13.05,6.95,-1.28
1122,2205622629,0.1172,0.9048,0.5820,11.59,6.52,-1.52
1123,2205627629,0.1089,0.9106,0.5879,10.00,6.28,-1.77
1124,2205632629,0.0933,0.9199,0.5933,8.60,6.28,-1.89
1125,2205637628,0.0762,0.9253,0.5781,7.56,6.34,-1.71
1126,2205642629,0.0571,0.9307,0.5737,7.01,6.16,-1.46
1127,2205647628,0.0415,0.9321,0.5693,6.89,6.34,-1.04
1128,2205652629,0.0361,0.9419,0.5679,7.50,6.40,-0.49
1129,2205657629,0.0347,0.9409,0.5645,8.41,6.65,0.18
1130,2205662629,0.0371,0.9414,0.5615,9.27,6.71,0.85
1131,2205667628,0.0439,0.9355,0.5615,9.63,6.65,1.40
1132,2205672629,0.0498,0.9307,0.5518,9.63,6.52,2.01
1133,2205677628,0.0630,0.9238,0.5537,9.39,6.28,2.38
1134,2205682630,0.0669,0.9229,0.5591,9.02,5.98,2.62
1135,2205687628,0.0781,0.9185,0.5498,8.84,5.73,2.80
1136,2205692629,0.0854,0.9199,0.5513,8.90,5.37,2.80
1137,2205697628,0.0898,0.9238,0.5552,9.21,5.00,2.87
1138,2205702629,0.0942,0.9189,0.5513,9.76,4.76,2.62
1139,2205707629,0.0981,0.9224,0.5537,10.55,4.33,2.38
1140,2205712629,0.1011,0.9189,0.5571,11.28,3.84,2.13
1141,2205717629,0.1030,0.9199,0.5449,11.95,3.60,1.83
1142,2205722628,0.0952,0.9175,0.5532,12.38,3.05,1.52
1143,2205727629,0.0957,0.9180,0.5532,12.38,2.87,1.28
1144,2205732628,0.0869,0.9136,0.5513,11.95,2.56,1.10
1145,2205737630,0.0869,0.9102,0.5474,11.28,2.32,0.98
1146,2205742627,0.0845,0.9136,0.5464,10.67,2.13,0.79
1147,2205747629,0.0767,0.9150,0.5474,10.18,1.71,0.49
1148,2205752628,0.0737,0.9077,0.5439,9.88,1.46,0.49
1149,2205757629,0.0645,0.9072,0.5396,9.63,1.28,0.24
1150,2205762627,0.0552,0.9097,0.5405,9.51,1.16,0.06
1151,2205767629,0.0615,0.9121,0.5444,9.57,0.79,0.18
1152,2205772628,0.0674,0.9146,0.5430,9.63,0.67,0.30
1153,2205777629,0.0728,0.9214,0.5303,9.70,0.24,0.12
1154,2205782627,0.0771,0.9185,0.5298,9.70,-0.12,0.12
1155,2205787629,0.0820,0.9170,0.5298,9.70,-0.49,0.24
1156,2205792628,0.0869,0.9194,0.5288,9.82,-0.73,0.30
1157,2205797629,0.0923,0.9277,0.5293,10.37,-1.22,0.61
1158,2205802627,0.0967,0.9272,0.5171,10.98,-1.52,0.67
1159,2205807629,0.0957,0.9375,0.5146,11.89,-2.01,1.10
1160,2205812629,0.0972,0.9409,0.5161,12.50,-2.07,1.40
1161,2205817629,0.0889,0.9380,0.5122,13.29,-2.50,1.95
1162,2205822628,0.0820,0.9404,0.5107,14.02,-2.68,2.56
1163,2205827629,0.0762,0.9438,0.5127,14.57,-2.93,3.23
1164,2205832627,0.0762,0.9404,0.5190,15.12,-2.93,3.78
1165,2205837627,0.0757,0.9458,0.5190,16.04,-3.17,4.33
1166,2205842630,0.0723,0.9395,0.5264,16.65,-3.11,4.76
1167,2205847629,0.0757,0.9272,0.5278,17.01,-3.17,5.06
1168,2205852628,0.0830,0.9204,0.5205,16.71,-3.35,5.18
1169,2205857629,0.0850,0.9165,0.5210,15.98,-3.29,5.18
1170,2205862627,0.0918,0.9136,0.5181,15.00,-3.48,5.00
1171,2205867820,0.0991,0.9092,0.5239,13.78,-3.48,4.63
1172,2205872629,0.0967,0.9028,0.5215,12.50,-3.54,4.33
1173,2205877629,0.1001,0.8984,0.5146,10.98,-3.72,3.90
1174,2205882629,0.1001,0.8984,0.5132,9.70,-3.84,3.60
1175,2205887628,0.1021,0.8994,0.5020,8.78,-3.84,3.29
1176,2205892629,0.1021,0.8975,0.5049,8.29,-3.78,3.05
1177,2205898109,0.0986,0.8979,0.5112,8.29,-3.60,3.11
1178,2205902629,0.0977,0.8979,0.5103,8.84,-3.48,2.93
1179,2205907629,0.0977,0.9058,0.5044,9.76,-3.17,3.11
1180,2205912629,0.0957,0.9141,0.5122,10.73,-3.29,3.17
1181,2205917628,0.0938,0.9146,0.5098,11.59,-3.11,3.23
1182,2205922629,0.0977,0.9233,0.5210,12.32,-2.99,3.35
1183,2205927628,0.1025,0.9282,0.5176,12.74,-3.05,3.54
1184,2205932629,0.1050,0.9287,0.5010,12.74,-2.99,3.60
1185,2205937629,0.1123,0.9277,0.5093,12.44,-3.11,3.66
1186,2205942629,0.1074,0.9336,0.5073,12.01,-3.29,3.78
1187,2205947628,0.1064,0.9316,0.4971,11.59,-3.29,3.72
1188,2205952629,0.1084,0.9307,0.4839,11.52,-3.41,3.84
1189,2205957628,0.1152,0.9263,0.4888,12.01,-3.66,4.02
1190,2205962629,0.1143,0.9180,0.4761,13.17,-3.84,4.21
1191,2205967629,0.1191,0.9165,0.4800,14.76,-3.90,4.27
1192,2205972629,0.1182,0.9146,0.4795,16.83,-4.02,4.33
1193,2205977628,0.1162,0.9121,0.4756,18.72,-4.15,4.51
1194,2205982629,0.1113,0.9131,0.4810,20.43,-4.15,4.63
1195,2205987627,0.1030,0.9185,0.4868,21.59,-4.21,4.63
1196,2205992629,0.0957,0.9302,0.4902,22.50,-4.02,4.76
1197,2205997629,0.0986,0.9414,0.5000,22.38,-3.72,4.70
1198,2206002629,0.0986,0.9487,0.5078,21.65,-3.54,4.57
1199,2206007628,0.0977,0.9556,0.5190,20.37,-3.29,4.15
1200,2206012629,0.0879,0.9575,0.5176,18.29,-2.80,3.72
1201,2206018026,0.0894,0.9575,0.5156,15.67,-2.50,3.41
1202,2206022629,0.0928,0.9565,0.5239,12.68,-2.13,3.17
1203,2206027629,0.0957,0.9497,0.5303,9.88,-1.83,2.93
1204,2206032629,0.0986,0.9458,0.5171,7.56,-1.65,2.68
1205,2206037628,0.1030,0.9414,0.5142,6.04,-1.52,2.56
1206,2206042629,0.1094,0.9312,0.5029,5.18,-1.40,2.50
1207,2206047628,0.1104,0.9248,0.5049,5.30,-1.59,2.50
1208,2206052629,0.1201,0.9189,0.4966,6.34,-1.83,2.44
1209,2206057629,0.1255,0.9121,0.4897,8.05,-2.20,2.50
1210,2206062629,0.1343,0.9116,0.4902,10.43,-2.74,2.62
1211,2206067628,0.1309,0.9165,0.4766,12.80,-3.23,2.87
1212,2206072629,0.1255,0.9189,0.4761,15.00,-3.84,3.17
1213,2206077628,0.1108,0.9287,0.4766,17.01,-4.39,3.41
1214,2206082629,0.0991,0.9346,0.4731,18.54,-4.94,3.60
1215,2206087629,0.0903,0.9429,0.4727,20.18,-5.43,3.96
1216,2206092629,0.0830,0.9536,0.4971,21.52,-5.55,4.27
1217,2206097628,0.0767,0.9585,0.5005,22.50,-5.49,4.51
1218,2206102629,0.0718,0.9565,0.5127,22.87,-5.43,4.70
1219,2206107628,0.0640,0.9561,0.5127,22.01,-5.24,4.76
1220,2206112629,0.0640,0.9541,0.5249,20.12,-4.94,5.00
1221,2206117629,0.0732,0.9546,0.5220,17.38,-4.57,5.06
1222,2206122629,0.0757,0.9453,0.5312,14.45,-4.33,4.88
1223,2206127630,0.0879,0.9346,0.5298,11.40,-4.21,4.82
1224,2206132629,0.0962,0.9243,0.5337,8.66,-4.02,4.51
1225,2206137628,0.1167,0.9189,0.5259,6.46,-3.84,4.33
1226,2206142629,0.1235,0.9023,0.5225,5.18,-3.84,3.96
1227,2206147629,0.1313,0.8921,0.5215,4.76,-3.84,3.60
1228,2206152629,0.1440,0.8853,0.5205,5.18,-3.96,3.23
1229,2206157628,0.1543,0.8862,0.5195,6.16,-4.09,2.80
1230,2206162629,0.1665,0.8921,0.5225,7.99,-4.45,2.20
1231,2206167628,0.1602,0.8970,0.5220,10.00,-4.82,1.71
1232,2206172629,0.1562,0.9033,0.5229,12.32,-5.12,0.91
1233,2206177629,0.1543,0.9087,0.5225,14.63,-5.49,0.30
1234,2206182629,0.1499,0.9141,0.5249,16.40,-5.73,-0.43
1235,2206187628,0.1367,0.9199,0.5298,17.56,-5.98,-0.98
1236,2206192628,0.1279,0.9238,0.5259,17.99,-6.16,-1.34
1237,2206197630,0.1206,0.9316,0.5288,17.68,-6.28,-1.77
1238,2206202630,0.1113,0.9297,0.5356,16.95,-6.46,-2.01
1239,2206207629,0.1021,0.9380,0.5273,15.85,-6.46,-2.01
1240,2206212629,0.0928,0.9414,0.5293,14.70,-6.46,-2.01
1241,2206217628,0.0957,0.9375,0.5244,13.72,-6.46,-1.77
1242,2206222629,0.0981,0.9399,0.5312,12.74,-6.52,-1.46
1243,2206227629,0.1045,0.9463,0.5210,12.07,-6.46,-1.22
1244,2206232628,0.1089,0.9487,0.5254,11.46,-6.46,-0.85
1245,2206237629,0.1113,0.9478,0.5190,11.10,-6.34,-0.61
1246,2206242627,0.1157,0.9517,0.5132,10.67,-6.40,-0.30
1247,2206247629,0.1250,0.9526,0.5171,10.67,-6.28,-0.12
1248,2206252628,0.1255,0.9595,0.5083,10.98,-6.22,0.00
1249,2206257629,0.1279,0.9570,0.5093,11.28,-6.16,0.00
1250,2206262627,0.1299,0.9609,0.5107,11.46,-5.85,-0.12
1251,2206267629,0.1274,0.9619,0.5161,11.46,-5.85,-0.06
1252,2206272628,0.1245,0.9624,0.5083,11.16,-5.55,-0.30
1253,2206277629,0.1196,0.9629,0.5098,10.61,-5.24,-0.49
1254,2206282627,0.1221,0.9644,0.5078,10.24,-5.00,-0.61
1255,2206287629,0.1167,0.9707,0.5068,9.88,-4.82,-0.79
1256,2206292628,0.1104,0.9688,0.5078,9.63,-4.63,-0.91
1257,2206297629,0.1040,0.9678,0.5083,9.51,-4.21,-0.79
1258,2206302627,0.1074,0.9648,0.4966,9.70,-3.96,-0.61
1259,2206307629,0.1089,0.9619,0.4976,9.88,-3.78,-0.49
1260,2206312628,0.1113,0.9570,0.4878,10.24,-3.35,-0.18
1261,2206317629,0.1128,0.9478,0.4946,10.43,-2.99,0.00
1262,2206322627,0.1191,0.9482,0.4868,10.43,-2.74,0.30
1263,2206327629,0.1216,0.9424,0.4805,10.49,-2.62,0.43
1264,2206332629,0.1240,0.9375,0.4819,10.30,-2.26,0.49
1265,2206337629,0.1270,0.9355,0.4771,10.00,-1.89,0.55
1266,2206342627,0.1289,0.9351,0.4717,9.39,-1.65,0.55
1267,2206347629,0.1313,0.9341,0.4702,8.60,-1.52,0.37
1268,2206352628,0.1309,0.9351,0.4741,7.62,-1.28,0.18
1269,2206357629,0.1265,0.9341,0.4727,6.89,-0.91,-0.12
1270,2206362627,0.1240,0.9380,0.4775,6.10,-0.49,-0.55
1271,2206367629,0.1187,0.9331,0.4722,5.67,-0.12,-0.79
1272,2206372628,0.1245,0.9380,0.4692,5.49,0.24,-1.10
1273,2206377629,0.1187,0.9331,0.4780,5.79,0.85,-1.46
1274,2206382627,0.1206,0.9380,0.4717,6.22,1.46,-1.59
1275,2206387629,0.1177,0.9370,0.4761,6.59,1.89,-1.71
1276,2206392628,0.1289,0.9395,0.4756,6.89,2.44,-1.83
1277,2206397629,0.1328,0.9336,0.4683,6.83,2.87,-2.07
1278,2206402692,0.1313,0.9292,0.4673,6.40,3.17,-2.32
1279,2206407629,0.1333,0.9248,0.4683,5.85,3.48,-2.50
1280,2206412628,0.1362,0.9233,0.4692,5.18,3.54,-2.68
1281,2206417629,0.1392,0.9253,0.4668,4.82,3.84,-2.93
1282,2206422627,0.1455,0.9233,0.4644,4.45,3.96,-3.23
1283,2206427629,0.1440,0.9233,0.4585,4.39,4.02,-3.41
1284,2206432628,0.1348,0.9229,0.4565,4.45,4.15,-3.60
1285,2206437629,0.1353,0.9282,0.4609,4.63,4.15,-3.60
1286,2206442627,0.1328,0.9238,0.4619,5.24,4.27,-3.54
1287,2206447629,0.1323,0.9326,0.4590,5.91,4.39,-3.54
1288,2206452628,0.1245,0.9351,0.4575,6.59,4.39,-3.60
1289,2206457630,0.1255,0.9443,0.4624,7.13,4.33,-3.54
1290,2206462627,0.1230,0.9487,0.4658,7.01,4.57,-3.54
1291,2206467629,0.1040,0.9497,0.4614,6.46,4.82,-3.35
1292,2206472628,0.1084,0.9536,0.4614,5.61,4.88,-3.11
