# skilleye imu stream v1
# device=xiao_esp32c6 imu=mpu6050 addr=0x68
# rate_hz=200 accel_range_g=16 gyro_range_dps=2000 dlpf_hz=94
# units: accel in g, gyro in deg/s, t_us in microseconds since boot (monotonic)
# no shared clock with the camera -- tap the racket once before each take
# so both recordings share a spike to align on
seq,t_us,ax,ay,az,gx,gy,gz
0,2174287629,0.4043,0.8799,0.6670,-5.55,17.38,13.41
1,2174292631,0.4248,0.8809,0.6553,-3.78,17.56,12.87
2,2174297629,0.4458,0.8794,0.6411,-3.11,17.68,12.13
3,2174302628,0.4580,0.8789,0.6338,-3.54,18.11,10.98
4,2174307629,0.4463,0.8613,0.6143,-4.94,18.35,9.70
5,2174312630,0.4468,0.8447,0.6133,-6.83,18.60,8.72
6,2174317629,0.2661,0.5405,0.7422,-6.52,20.00,10.73
7,2174322628,0.3164,0.9927,0.5410,-4.21,21.28,12.56
8,2174327629,0.4106,1.1504,0.4995,-2.68,21.65,11.59
9,2174332629,0.4761,1.0596,0.6089,-1.59,22.01,10.06
10,2174337629,0.4922,0.9009,0.6675,-1.10,21.95,9.15
11,2174342628,0.4927,0.8125,0.6772,-1.40,21.71,8.60
12,2174347629,0.4644,0.7861,0.6909,-3.05,21.04,7.50
13,2174352630,0.4463,0.8130,0.7012,-5.67,20.67,5.98
14,2174357629,0.4458,0.8413,0.6763,-8.48,19.76,3.96
15,2174362630,0.4526,0.8545,0.6616,-10.98,19.21,2.01
16,2174367629,0.4604,0.8574,0.6460,-12.99,18.35,0.06
17,2174372629,0.4468,0.8345,0.6362,-14.39,17.44,-1.40
18,2174377629,0.4175,0.8101,0.6201,-15.18,16.40,-2.56
19,2174382628,0.3970,0.7959,0.6084,-15.91,15.24,-3.60
20,2174387629,0.3843,0.7905,0.6074,-15.98,13.90,-4.27
21,2174392629,0.3711,0.7988,0.6030,-15.79,12.50,-4.94
22,2174397629,0.3784,0.8022,0.6167,-15.00,11.10,-5.61
23,2174402628,0.3965,0.8164,0.6299,-13.48,9.82,-6.34
24,2174407629,0.3833,0.8364,0.6602,-11.71,8.54,-7.38
25,2174412630,0.3779,0.8306,0.6641,-10.43,7.38,-8.23
26,2174417629,0.3682,0.8164,0.6450,-9.57,5.98,-9.15
27,2174422628,0.3633,0.8125,0.6406,-9.33,4.21,-9.70
28,2174427629,0.3496,0.8174,0.6353,-9.57,2.38,-10.18
29,2174432629,0.3350,0.8174,0.6338,-10.49,0.37,-10.55
30,2174437629,0.3350,0.8125,0.6460,-11.71,-2.13,-10.98
31,2174442628,0.3403,0.7998,0.6538,-13.17,-4.27,-11.16
32,2174447629,0.3301,0.7935,0.6636,-15.00,-6.65,-11.22
33,2174452630,0.3071,0.7939,0.6636,-17.13,-8.72,-11.16
34,2174457629,0.2974,0.8115,0.6763,-19.57,-11.04,-11.04
35,2174462630,0.2910,0.8926,0.6895,-22.20,-13.23,-10.98
36,2174467629,0.2930,0.8940,0.6846,-25.12,-15.24,-10.91
37,2174472629,0.3315,0.8892,0.6572,-27.07,-17.38,-10.18
38,2174477629,0.3208,0.9160,0.6318,-27.32,-19.57,-9.39
39,2174482734,0.3403,0.9292,0.5977,-26.16,-21.22,-8.66
40,2174487629,0.3667,0.9473,0.5991,-23.96,-22.62,-8.11
41,2174492629,0.3662,0.9468,0.6270,-20.98,-23.78,-7.50
42,2174497629,0.3535,0.9316,0.6313,-17.99,-24.88,-7.01
43,2174502628,0.3481,0.9097,0.6353,-15.00,-26.04,-6.46
44,2174507629,0.3477,0.8838,0.6396,-12.26,-26.89,-5.98
45,2174512630,0.3394,0.8569,0.6636,-10.12,-27.74,-5.61
46,2174517629,0.3174,0.8291,0.6709,-8.78,-27.93,-5.18
47,2174522628,0.2935,0.8179,0.6724,-8.78,-28.11,-4.82
48,2174527629,0.2964,0.8125,0.6626,-10.18,-27.87,-4.63
49,2174532629,0.3071,0.8115,0.6533,-13.60,-27.50,-4.45
50,2174537629,0.3286,0.8276,0.6333,-18.60,-27.01,-4.45
51,2174542628,0.3477,0.8491,0.6230,-25.12,-27.07,-4.57
52,2174547629,0.3530,0.8716,0.6338,-32.20,-27.07,-4.88
53,2174553110,0.3569,0.8838,0.6504,-38.96,-27.62,-5.12
54,2174557630,0.3584,0.8838,0.6763,-45.06,-28.23,-5.18
55,2174563187,0.3750,0.8813,0.6934,-50.55,-28.84,-4.88
56,2174567630,0.3711,0.8804,0.7065,-55.12,-29.15,-4.15
57,2174572629,0.3677,0.8828,0.7031,-58.96,-29.57,-3.23
58,2174577629,0.3633,0.8770,0.6929,-62.20,-29.88,-2.01
59,2174582630,0.3481,0.8735,0.6885,-65.06,-29.76,-0.67
60,2174587629,0.3389,0.8613,0.6724,-67.26,-29.63,0.79
61,2174592629,0.3311,0.8491,0.6597,-68.90,-29.82,2.38
62,2174597629,0.3257,0.8135,0.6689,-69.94,-30.00,4.02
63,2174602630,0.3345,0.8066,0.6694,-69.70,-30.30,5.49
64,2174607629,0.3774,0.7979,0.6890,-68.48,-30.79,6.77
65,2174612629,0.3823,0.7886,0.6968,-66.16,-30.73,8.11
66,2174617629,0.3774,0.7715,0.6787,-62.99,-30.61,9.57
67,2174622630,0.3677,0.7539,0.6650,-58.35,-30.37,10.85
68,2174627629,0.3672,0.7412,0.6665,-52.44,-29.82,12.32
69,2174632627,0.3481,0.7397,0.6621,-45.00,-29.39,13.54
70,2174637629,0.3755,0.6812,0.6553,-36.40,-28.84,14.57
71,2174642629,0.3862,0.6567,0.6519,-27.38,-28.17,15.67
72,2174647627,0.3818,0.6514,0.6401,-18.23,-27.32,16.71
73,2174652629,0.3896,0.6509,0.6343,-9.33,-26.34,17.44
74,2174657627,0.3721,0.6465,0.6284,-0.49,-24.82,17.74
75,2174662627,0.3960,0.5850,0.6172,7.99,-22.99,18.23
76,2174667627,0.3984,0.5923,0.6030,15.79,-20.98,19.09
77,2174672627,0.4004,0.6177,0.5742,22.74,-18.78,19.82
78,2174677631,0.4048,0.6328,0.5571,29.27,-16.65,20.37
79,2174682628,0.4023,0.6597,0.5503,34.82,-14.21,20.91
80,2174687629,0.4033,0.6899,0.5488,39.70,-11.83,20.91
81,2174692627,0.4033,0.6978,0.5464,43.35,-9.63,20.73
82,2174697631,0.3994,0.7202,0.5527,46.28,-7.44,20.18
83,2174702628,0.4126,0.7246,0.5562,48.23,-5.55,19.09
84,2174707631,0.4336,0.7021,0.5488,49.82,-3.78,17.62
85,2174712630,0.4595,0.7036,0.5562,50.61,-2.32,16.22
86,2174717628,0.4736,0.7310,0.5542,50.85,-0.79,14.76
87,2174722631,0.4795,0.7476,0.5479,50.49,0.12,12.87
88,2174727627,0.4722,0.7461,0.5420,49.63,1.04,11.10
89,2174732627,0.4443,0.7358,0.5381,48.60,1.89,9.51
90,2174737627,0.4121,0.7363,0.5298,47.56,2.62,8.05
91,2174742629,0.3916,0.7573,0.5254,46.71,3.41,6.77
92,2174747713,0.4053,0.7783,0.5171,46.10,4.09,5.24
93,2174752628,0.4229,0.7812,0.5024,46.52,4.76,3.60
94,2174757627,0.4517,0.7700,0.4917,48.29,5.43,1.52
95,2174762630,0.4609,0.7681,0.4966,49.88,5.79,0.24
96,2174767629,0.4487,0.7705,0.4927,52.13,6.34,-1.28
97,2174772630,0.4307,0.7739,0.4971,53.90,6.40,-2.74
98,2174777629,0.4116,0.7842,0.5049,54.76,6.83,-4.09
99,2174782628,0.4043,0.7969,0.4995,54.57,6.95,-5.30
100,2174787629,0.4023,0.8179,0.4922,53.35,6.95,-6.22
101,2174792629,0.3994,0.8369,0.4907,50.91,6.77,-6.95
102,2174797629,0.3936,0.8569,0.4941,47.38,6.59,-7.56
103,2174802629,0.3833,0.8750,0.4946,42.99,6.40,-8.11
104,2174807627,0.3765,0.8818,0.4858,37.93,6.34,-8.35
105,2174812630,0.3765,0.8906,0.4834,32.56,6.04,-8.66
106,2174817628,0.3691,0.8960,0.4829,27.44,5.61,-8.66
107,2174822631,0.3564,0.8975,0.4790,22.56,5.12,-8.48
108,2174827627,0.3350,0.8794,0.4785,18.48,4.70,-7.87
109,2174832629,0.3193,0.8691,0.4814,15.43,3.90,-6.77
110,2174837628,0.3032,0.8687,0.4878,13.84,3.29,-5.18
111,2174842627,0.2959,0.8696,0.4971,13.90,2.50,-3.11
112,2174847627,0.2881,0.8862,0.5112,15.30,1.83,-0.73
113,2174852631,0.2793,0.9048,0.5176,17.68,1.34,1.71
114,2174857627,0.2808,0.9189,0.5205,20.49,1.22,4.02
115,2174862627,0.2827,0.9258,0.5205,23.29,1.34,6.40
116,2174867627,0.2817,0.9287,0.5210,25.55,1.52,8.72
117,2174872627,0.2852,0.9258,0.5200,26.89,1.77,10.98
118,2174877631,0.2969,0.9248,0.5151,27.07,2.13,12.99
119,2174882629,0.3057,0.9312,0.5161,26.46,2.32,14.88
120,2174887628,0.3013,0.9224,0.5161,25.06,2.44,16.28
121,2174892631,0.3032,0.9111,0.5273,23.48,2.62,17.80
122,2174897627,0.3062,0.8955,0.5322,21.83,2.87,19.02
123,2174902629,0.2974,0.8813,0.5483,20.67,2.93,20.30
124,2174907628,0.2930,0.8696,0.5503,20.30,3.11,21.40
125,2174912629,0.2817,0.8525,0.5576,20.61,3.48,22.44
126,2174917628,0.2803,0.8423,0.5527,21.34,3.90,23.72
127,2174922631,0.2852,0.8325,0.5542,22.32,4.63,24.63
128,2174927628,0.3052,0.8325,0.5430,22.93,5.37,25.43
129,2174932629,0.3086,0.8306,0.5371,22.87,5.98,25.98
130,2174937627,0.3198,0.8237,0.5244,22.07,6.77,26.28
131,2174942629,0.3320,0.8164,0.5264,20.61,7.32,26.52
132,2174947628,0.3340,0.8154,0.5210,19.15,7.80,26.52
133,2174952629,0.3354,0.8091,0.5225,17.80,8.23,26.28
134,2174957627,0.3501,0.7979,0.5298,17.26,8.90,25.91
135,2174962680,0.3657,0.7842,0.5337,17.56,9.39,25.43
136,2174967628,0.3682,0.7739,0.5430,18.84,10.12,24.94
137,2174973026,0.3813,0.7725,0.5444,21.28,10.91,23.90
138,2174977630,0.3926,0.7720,0.5352,23.29,11.65,23.11
139,2174982629,0.4028,0.7695,0.5386,26.04,12.44,22.13
140,2174987629,0.3989,0.7676,0.5312,28.84,13.29,21.10
141,2174992873,0.4004,0.7729,0.5264,31.52,14.15,20.06
142,2174997629,0.4126,0.7681,0.5205,33.90,14.94,18.84
143,2175002629,0.4146,0.7822,0.5249,35.91,16.04,17.68
144,2175007629,0.4067,0.7969,0.5229,37.26,16.89,16.34
145,2175012628,0.4014,0.7881,0.5215,38.11,17.80,15.06
146,2175017629,0.3921,0.7812,0.5190,38.48,18.41,14.15
147,2175022629,0.3911,0.7837,0.5244,38.72,19.02,13.29
148,2175027629,0.3950,0.7920,0.5303,39.15,19.33,12.44
149,2175032630,0.3989,0.7832,0.5327,39.76,19.88,11.65
150,2175037629,0.3989,0.7871,0.5361,40.49,20.43,10.98
151,2175042629,0.3975,0.7793,0.5352,41.28,20.91,10.30
152,2175047629,0.4077,0.7773,0.5337,41.83,21.28,9.51
153,2175052628,0.4111,0.7852,0.5342,41.95,21.71,8.78
154,2175057629,0.4126,0.7910,0.5386,41.89,21.83,7.99
155,2175062627,0.4238,0.7910,0.5317,41.65,21.89,6.95
156,2175067631,0.4219,0.7905,0.5420,41.28,22.07,5.91
157,2175072628,0.4272,0.7905,0.5449,41.34,21.95,4.94
158,2175077629,0.4336,0.7886,0.5474,41.10,22.01,3.84
159,2175082629,0.4292,0.7964,0.5483,40.73,21.83,2.62
160,2175087629,0.4312,0.7983,0.5518,40.12,21.59,1.65
161,2175092627,0.4355,0.8066,0.5454,39.09,21.28,0.91
162,2175097630,0.4351,0.8120,0.5503,37.93,20.79,0.06
163,2175102629,0.4268,0.8188,0.5479,36.59,20.24,-0.67
164,2175107628,0.4321,0.8228,0.5518,35.67,19.51,-1.28
165,2175112629,0.4336,0.8237,0.5591,35.24,19.02,-1.77
166,2175117627,0.4302,0.8320,0.5669,35.79,18.29,-2.20
167,2175122631,0.4346,0.8296,0.5630,37.38,17.74,-2.62
168,2175127628,0.4424,0.8306,0.5674,40.06,17.26,-2.99
169,2175132631,0.4404,0.8340,0.5796,43.60,16.71,-3.29
170,2175137627,0.4434,0.8413,0.5869,47.44,16.34,-3.41
171,2175142629,0.4448,0.8457,0.5898,51.40,15.91,-3.54
172,2175147628,0.4414,0.8604,0.5947,54.63,15.49,-3.60
173,2175152629,0.4404,0.8682,0.6001,56.59,15.00,-3.66
174,2175157627,0.4424,0.8789,0.5981,57.68,14.45,-3.54
175,2175162629,0.4468,0.8940,0.6011,57.68,13.84,-3.41
176,2175167628,0.4473,0.9111,0.6079,56.46,13.29,-3.11
177,2175172631,0.4424,0.9180,0.6060,54.09,12.38,-2.80
178,2175177627,0.4453,0.9258,0.6152,50.91,11.46,-2.44
179,2175182631,0.4116,0.8960,0.7192,47.68,10.49,-2.13
180,2175187628,0.4355,0.8750,0.7769,45.24,9.51,-1.83
181,2175192629,0.4453,0.8896,0.6328,42.01,7.93,-1.46
182,2175197632,0.4429,0.9282,0.6392,39.15,5.91,-1.10
183,2175202631,0.4355,0.9614,0.7158,37.20,4.21,-0.55
184,2175207628,0.4331,0.9780,0.7104,36.28,2.80,0.06
185,2175212629,0.4399,0.9854,0.6567,36.46,0.85,0.73
186,2175217627,0.4453,0.9888,0.6655,37.74,-1.10,1.59
187,2175222630,0.4385,0.9878,0.7012,39.57,-2.80,2.62
188,2175227628,0.4414,0.9858,0.6792,42.13,-4.63,3.41
189,2175232631,0.4395,0.9839,0.6685,45.12,-6.89,4.39
190,2175237627,0.4463,0.9795,0.6968,48.05,-8.78,5.24
191,2175242627,0.4512,0.9839,0.7051,50.85,-10.85,5.85
192,2175247627,0.4443,0.9873,0.6797,52.99,-13.11,6.59
193,2175252629,0.4453,0.9839,0.6899,54.21,-15.55,7.07
194,2175257629,0.4526,0.9751,0.7017,54.82,-17.68,7.50
195,2175262628,0.4575,0.9741,0.6938,54.76,-20.24,8.05
196,2175267627,0.4648,0.9810,0.6772,53.96,-22.68,8.29
197,2175272631,0.4639,0.9941,0.6743,52.68,-25.12,8.66
198,2175277627,0.4717,1.0010,0.6504,50.67,-27.80,8.84
199,2175282627,0.4751,1.0054,0.6387,49.33,-30.18,8.96
200,2175287627,0.4849,1.0103,0.6201,48.05,-32.44,9.15
201,2175292823,0.4468,1.0054,0.6025,47.13,-35.06,9.15
202,2175297628,0.4683,0.9966,0.5801,47.07,-36.77,9.33
203,2175302627,0.4487,0.9990,0.5918,47.32,-38.54,9.51
204,2175307627,0.4478,0.9819,0.5854,47.44,-40.43,9.63
205,2175312629,0.4575,0.9849,0.5479,48.11,-42.07,9.88
206,2175317627,0.4551,0.9951,0.5396,49.51,-43.84,10.18
207,2175322631,0.4531,1.0112,0.5503,52.01,-45.37,10.73
208,2175327628,0.4434,1.0210,0.5464,54.88,-46.65,11.65
209,2175332627,0.4321,1.0142,0.5410,57.87,-48.05,12.68
210,2175337631,0.4287,1.0117,0.5576,60.18,-49.15,13.60
211,2175342629,0.4282,1.0137,0.5542,61.46,-50.43,14.82
212,2175347628,0.4380,1.0137,0.5298,61.59,-51.77,15.98
213,2175352629,0.4497,1.0273,0.5288,60.43,-53.17,16.95
214,2175357627,0.4531,1.0435,0.5337,57.74,-54.33,17.80
215,2175362629,0.4521,1.0557,0.5234,54.09,-55.67,18.60
216,2175367628,0.4565,1.0664,0.5083,50.00,-57.07,19.57
217,2175372631,0.4546,1.0796,0.5015,45.98,-58.17,20.55
218,2175377627,0.4512,1.0830,0.5034,42.68,-59.39,21.71
219,2175382842,0.4653,1.0986,0.4907,39.63,-60.55,23.23
220,2175387629,0.4673,1.1104,0.4712,38.60,-61.28,24.39
221,2175392629,0.4741,1.1289,0.4658,37.99,-62.13,25.85
222,2175397629,0.4766,1.1465,0.4556,37.99,-62.74,27.56
223,2175403139,0.4849,1.1650,0.4351,38.72,-63.48,29.76
224,2175407630,0.4902,1.1846,0.4258,39.39,-64.15,31.40
225,2175412629,0.4912,1.2021,0.4131,40.73,-64.76,33.84
226,2175417629,0.4829,1.2246,0.4038,42.32,-65.49,36.28
227,2175422628,0.4902,1.2490,0.3818,44.21,-66.16,38.72
228,2175427629,0.4985,1.2754,0.3740,46.40,-67.07,41.46
229,2175432629,0.5015,1.2935,0.3540,48.72,-67.80,44.27
230,2175437629,0.4995,1.3130,0.3271,51.34,-68.60,47.20
231,2175442630,0.5020,1.3286,0.3135,54.39,-69.27,50.30
232,2175447629,0.5024,1.3379,0.2964,57.93,-69.88,53.60
233,2175452629,0.5054,1.3452,0.2832,62.13,-70.24,57.07
234,2175457629,0.5068,1.3535,0.2729,66.71,-70.61,60.85
235,2175462628,0.5093,1.3618,0.2520,71.65,-70.61,64.82
236,2175467629,0.5093,1.3672,0.2407,76.22,-70.73,68.78
237,2175472627,0.5024,1.3848,0.2153,80.00,-70.79,73.05
238,2175477631,0.5049,1.3940,0.1982,82.80,-70.79,77.20
239,2175482628,0.5215,1.4023,0.1787,84.94,-70.67,81.59
240,2175487628,0.5283,1.4072,0.1606,85.91,-70.61,85.67
241,2175492629,0.5264,1.4097,0.1436,86.04,-70.61,90.67
242,2175497627,0.5137,1.4102,0.1201,85.37,-70.37,95.37
243,2175502627,0.5005,1.3999,0.0908,84.33,-70.00,100.12
244,2175507629,0.4980,1.3853,0.0713,83.35,-69.51,105.12
245,2175512628,0.5020,1.3647,0.0596,82.93,-68.90,110.24
246,2175517627,0.5015,1.3491,0.0337,83.11,-67.93,115.37
247,2175522629,0.4917,1.3364,0.0073,84.21,-66.71,120.55
248,2175527627,0.4868,1.3267,-0.0117,85.98,-65.49,125.43
249,2175532629,0.5010,1.3145,-0.0376,89.70,-63.78,131.04
250,2175537631,0.5229,1.2983,-0.0625,92.68,-62.56,134.51
251,2175542629,0.5420,1.2827,-0.0825,97.32,-60.61,138.60
252,2175547629,0.5552,1.2588,-0.1074,102.44,-58.66,142.13
253,2175552628,0.5532,1.2344,-0.1211,106.95,-56.52,145.61
254,2175557629,0.5562,1.1987,-0.1460,110.43,-54.51,148.66
255,2175562629,0.5435,1.1509,-0.1694,112.62,-52.07,151.52
256,2175567629,0.5376,1.0952,-0.1919,113.72,-49.70,154.33
257,2175572628,0.5376,1.0415,-0.1978,114.02,-47.07,156.71
258,2175577629,0.5371,0.9922,-0.2178,113.29,-44.27,159.02
259,2175582627,0.5337,0.9399,-0.2339,111.77,-41.40,160.91
260,2175587701,0.5293,0.8696,-0.2437,108.60,-37.80,162.87
261,2175592630,0.5137,0.8262,-0.2495,105.85,-35.55,164.02
262,2175597629,0.5005,0.7534,-0.2617,100.91,-32.01,165.30
263,2175602627,0.4937,0.7114,-0.2627,97.07,-29.70,165.91
264,2175607627,0.4893,0.6523,-0.2651,92.07,-27.01,166.46
265,2175612629,0.4717,0.5830,-0.2749,85.55,-23.90,166.52
266,2175617628,0.4458,0.5249,-0.2637,79.63,-21.16,166.28
267,2175622631,0.4233,0.4775,-0.2783,73.05,-18.54,165.67
268,2175627628,0.4033,0.4277,-0.2891,65.85,-16.16,164.82
269,2175632630,0.3818,0.3726,-0.2944,59.15,-13.66,163.54
270,2175637627,0.3535,0.3237,-0.2959,53.84,-11.16,161.95
271,2175642627,0.3462,0.2671,-0.2954,50.85,-8.48,159.94
272,2175647627,0.3540,0.2139,-0.2920,50.12,-5.85,157.44
273,2175652631,0.3477,0.1587,-0.2964,51.83,-2.68,154.39
274,2175657628,0.3491,0.1084,-0.3013,55.06,0.43,150.85
275,2175662631,0.3477,0.0479,-0.2979,59.57,3.41,146.89
276,2175667629,0.3350,-0.0098,-0.2930,64.45,6.59,142.50
277,2175672628,0.3350,-0.0601,-0.2930,68.84,9.57,137.56
278,2175677627,0.3413,-0.1094,-0.2852,72.07,12.68,132.13
279,2175682631,0.3442,-0.1558,-0.2842,73.41,15.49,126.22
280,2175687627,0.3462,-0.2061,-0.2769,72.87,18.17,119.88
281,2175692629,0.3486,-0.2515,-0.2720,70.24,20.67,113.05
282,2175697628,0.3403,-0.2891,-0.2607,65.67,22.87,105.79
283,2175702629,0.3379,-0.3291,-0.2598,59.82,25.00,97.93
284,2175707627,0.3413,-0.3765,-0.2510,53.66,26.89,89.94
285,2175712627,0.3472,-0.4214,-0.2354,48.11,28.48,81.10
286,2175717630,0.3452,-0.4580,-0.2139,44.21,30.30,72.01
287,2175722681,0.3511,-0.4922,-0.2021,41.77,32.26,62.62
288,2175727627,0.3643,-0.5303,-0.1919,40.67,34.27,52.99
289,2175732629,0.3818,-0.5562,-0.2212,41.71,23.41,42.87
290,2175737628,0.3525,-0.5854,-0.1973,41.83,36.95,32.56
291,2175742627,0.3564,-0.6113,-0.1475,43.05,39.09,21.89
292,2175747627,0.3516,-0.6299,-0.1489,44.33,40.49,11.10
293,2175752631,0.3423,-0.6440,-0.1523,45.43,41.46,0.06
294,2175757629,0.3442,-0.6616,-0.1055,45.61,42.44,-11.34
295,2175762628,0.3452,-0.6729,-0.0576,45.12,43.35,-22.68
296,2175767629,0.3423,-0.6680,-0.0732,43.72,43.84,-34.39
297,2175772627,0.3472,-0.6660,-0.0693,40.98,43.72,-46.04
298,2175777627,0.3418,-0.6577,-0.0244,37.07,43.78,-57.80
299,2175782629,0.3477,-0.6421,0.0034,31.83,43.66,-69.45
300,2175787628,0.3486,-0.6274,-0.0044,25.73,43.17,-80.91
301,2175792627,0.3506,-0.6089,0.0156,19.21,42.56,-92.38
302,2175797629,0.3608,-0.5811,0.0479,12.50,41.77,-103.66
303,2175802627,0.3745,-0.5522,0.0601,6.16,41.16,-114.82
304,2175807627,0.3857,-0.5234,0.0571,0.49,40.18,-126.04
305,2175812627,0.4087,-0.4956,0.0781,-4.21,39.27,-137.26
306,2175817705,0.4326,-0.4551,0.0952,-8.05,38.23,-148.48
307,2175822629,0.4590,-0.4136,0.0908,-11.16,37.07,-159.82
308,2175827628,0.4756,-0.3716,0.0835,-13.78,35.49,-171.34
309,2175832629,0.4868,-0.3013,0.1016,-15.73,33.96,-182.87
310,2175837628,0.5303,-0.2222,0.1216,-17.13,32.32,-194.70
311,2175842703,0.5625,-0.1362,0.1260,-18.35,30.49,-206.10
312,2175847628,0.5654,-0.0498,0.1284,-20.06,28.66,-217.20
313,2175852631,0.5513,0.0254,0.1328,-22.68,26.71,-227.56
314,2175857627,0.5381,0.1050,0.1250,-26.28,24.63,-236.89
315,2175862627,0.5239,0.1978,0.1299,-30.37,22.56,-245.24
316,2175867629,0.5156,0.3071,0.1289,-34.94,20.61,-252.62
317,2175872629,0.4946,0.4131,0.1255,-39.82,18.78,-258.78
318,2175877628,0.4731,0.5293,0.1094,-45.18,17.32,-263.72
319,2175882627,0.7256,3.8120,0.1538,-50.30,16.16,-266.46
320,2175887631,2.6577,8.3442,-0.8604,-107.13,8.60,-150.06
321,2175892627,0.9185,1.9902,-1.2632,-100.73,-4.27,-64.15
322,2175897631,1.1226,1.3086,1.1548,-97.26,-4.33,-15.85
323,2175902629,1.2266,1.7139,1.3823,-98.90,-1.65,23.11
324,2175907628,1.2065,2.7402,-0.1802,-105.37,-9.57,39.02
325,2175912627,1.1572,3.3359,-0.1045,-99.70,-17.07,40.43
326,2175917629,0.9707,2.6938,0.8110,-81.89,-14.88,38.66
327,2175922630,0.8613,1.1514,0.2373,-56.34,-12.74,36.52
328,2175927629,0.9204,-0.1724,-0.4722,-28.35,-16.83,35.61
329,2175932628,0.9219,-0.4941,0.1567,-1.22,-18.11,35.30
330,2175937629,0.8560,0.1079,0.5869,23.72,-14.82,34.21
331,2175942629,0.8257,1.0376,-0.0518,45.85,-14.57,32.13
332,2175947629,0.8164,1.6680,-0.3003,64.39,-17.44,30.37
333,2175952630,0.7974,1.6802,0.2515,77.93,-17.20,29.63
334,2175957629,0.7817,1.2007,0.3188,86.28,-15.61,30.73
335,2175962629,0.7808,0.6631,-0.1602,90.30,-17.20,33.60
336,2175967629,0.7661,0.4438,-0.1558,90.55,-19.70,37.44
337,2175972628,0.7490,0.6274,0.1753,88.35,-19.57,41.40
338,2175977629,0.7310,1.0342,0.0186,84.57,-19.33,45.30
339,2175982629,0.7075,1.3672,-0.2920,79.94,-21.16,49.57
340,2175987629,0.6772,1.4473,-0.1348,74.70,-22.32,54.51
341,2175992627,0.6646,1.2856,0.0586,68.60,-21.52,60.49
342,2175997627,0.6592,1.0244,-0.1323,62.01,-21.34,67.32
343,2176002679,0.6294,0.8633,-0.2798,55.18,-22.38,74.88
344,2176007627,0.6113,0.8677,-0.1221,48.29,-22.26,82.56
345,2176012627,0.6108,0.9775,-0.0679,41.89,-21.22,89.39
346,2176017630,0.6138,1.0913,-0.2344,36.40,-20.98,96.28
347,2176022629,0.6045,1.1230,-0.2524,32.13,-21.16,102.68
348,2176027627,0.5952,1.0400,-0.1167,29.02,-20.24,108.72
349,2176032629,0.5957,0.8989,-0.1436,27.44,-18.96,114.45
350,2176037628,0.5933,0.7646,-0.2515,27.56,-18.54,119.76
351,2176042630,0.5708,0.7056,-0.2046,29.27,-17.99,124.45
352,2176047627,0.5601,0.6963,-0.1245,32.50,-16.46,128.35
353,2176052631,0.5571,0.6987,-0.1699,37.13,-15.30,131.71
354,2176057628,0.5601,0.6792,-0.2183,42.87,-14.21,134.21
355,2176062629,0.5723,0.6040,-0.1514,48.84,-12.87,136.04
356,2176067627,0.5796,0.4961,-0.1069,54.63,-10.98,137.20
357,2176072631,0.5869,0.3809,-0.1572,59.45,-9.70,137.93
358,2176077628,0.5938,0.2842,-0.1821,62.93,-8.60,137.87
359,2176082629,0.5923,0.2295,-0.1201,64.39,-7.32,137.13
360,2176087642,0.5952,0.1855,-0.1079,63.96,-6.28,135.43
361,2176092631,0.6050,0.1499,-0.1377,61.46,-5.55,132.87
362,2176097628,0.6069,0.0918,-0.1279,56.89,-5.37,129.45
363,2176102631,0.6025,0.0078,-0.0762,50.73,-5.24,125.30
364,2176107627,0.6040,-0.0815,-0.0718,43.35,-5.43,120.37
365,2176112627,0.6035,-0.1641,-0.0854,35.61,-5.98,114.57
366,2176117833,0.6118,-0.2290,-0.0449,27.87,-6.65,108.11
367,2176122630,0.6172,-0.2773,-0.0093,20.55,-7.20,100.79
368,2176127629,0.6216,-0.3223,-0.0259,14.02,-8.05,92.26
369,2176132628,0.6353,-0.3794,-0.0234,8.72,-8.90,83.35
370,2176137627,0.6313,-0.4272,0.0010,4.63,-9.63,73.48
371,2176142628,0.6265,-0.4868,0.0093,1.89,-10.18,62.87
372,2176147629,0.6206,-0.5400,0.0049,0.67,-10.73,51.46
373,2176152627,0.6079,-0.5835,0.0063,0.73,-11.22,39.63
374,2176157627,0.5933,-0.6074,0.0200,1.95,-11.40,27.20
375,2176162627,0.5850,-0.6338,0.0366,4.21,-11.52,14.45
376,2176167627,0.5713,-0.6494,0.0347,6.77,-11.65,1.28
377,2176172627,0.5552,-0.6606,0.0493,8.90,-11.40,-11.83
378,2176177627,0.5332,-0.6685,0.0562,10.12,-11.34,-25.12
379,2176182632,0.5161,-0.6772,0.0439,10.06,-11.34,-38.54
380,2176187630,0.5078,-0.6694,0.0415,8.66,-11.71,-51.83
381,2176192627,0.4927,-0.6538,0.0425,5.79,-11.89,-65.12
382,2176197630,0.4814,-0.6406,0.0454,1.40,-12.26,-78.23
383,2176202631,0.4707,-0.6196,0.0298,-4.15,-12.44,-91.10
384,2176207629,0.4551,-0.5918,0.0195,-10.98,-12.44,-103.90
385,2176212629,0.4399,-0.5659,0.0088,-18.60,-12.44,-116.16
386,2176217629,0.4214,-0.5298,-0.0078,-26.52,-12.44,-128.23
387,2176222629,0.4141,-0.4912,-0.0337,-33.84,-12.32,-140.18
388,2176227628,0.4087,-0.4395,-0.0581,-39.94,-11.89,-151.83
389,2176232629,0.4111,-0.3828,-0.0757,-44.39,-11.16,-163.23
390,2176237629,0.4102,-0.3037,-0.0913,-46.95,-10.12,-174.39
391,2176242629,0.4092,-0.2349,-0.1108,-47.93,-9.02,-185.12
392,2176247628,0.4033,-0.1587,-0.1328,-47.50,-7.44,-195.61
393,2176252627,0.3970,-0.0747,-0.1440,-46.28,-5.61,-205.55
394,2176257627,0.3960,0.0054,-0.1587,-45.12,-3.78,-214.82
395,2176262630,0.3833,0.0767,-0.1699,-44.09,-1.77,-223.35
396,2176267629,0.3726,0.1577,-0.1709,-43.90,0.18,-230.91
397,2176272629,0.3687,0.2549,-0.1660,-44.70,2.07,-237.68
398,2176277628,0.3794,0.3506,-0.1782,-46.65,4.02,-243.66
399,2176282629,0.3784,0.4424,-0.1895,-50.06,5.91,-248.78
400,2176287629,2.9883,12.1733,-0.9854,-40.12,8.29,-216.40
401,2176292627,1.1548,10.2964,-0.2559,-12.38,6.28,-91.71
402,2176297631,1.1909,6.4819,1.5049,-83.29,1.04,-33.17
403,2176302826,1.1738,2.6929,0.4023,-131.95,-2.32,-3.17
404,2176307629,1.1978,0.0352,-0.6851,-138.96,-7.93,15.37
405,2176312628,1.0298,-0.7837,-0.0078,-118.11,-6.34,25.30
406,2176317629,0.8335,-0.0513,0.3638,-85.91,1.40,27.87
407,2176322627,0.8438,1.2168,-0.5229,-56.10,3.84,25.61
408,2176327629,0.8940,1.9712,-0.7256,-31.71,1.77,20.91
409,2176332629,0.9116,1.8135,0.0796,-16.77,2.87,15.55
410,2176337629,0.9370,1.0083,0.1504,-9.94,4.70,10.79
411,2176342627,0.9502,0.1519,-0.3999,-7.32,2.07,7.26
412,2176347629,0.9209,-0.2251,-0.1909,-6.28,-0.67,4.45
413,2176352628,0.8755,0.0034,0.3091,-6.22,0.06,1.40
414,2176357629,0.8633,0.5557,0.0801,-6.77,0.24,-2.13
415,2176362629,0.8506,1.0376,-0.2622,-8.48,-2.38,-5.67
416,2176367629,0.8228,1.2017,0.0332,-11.83,-4.21,-8.84
417,2176372628,0.8071,0.9941,0.2847,-17.01,-3.78,-10.98
418,2176377629,0.8145,0.6274,0.0166,-23.60,-4.88,-11.95
419,2176382627,0.8223,0.3877,-0.1138,-31.46,-7.62,-12.07
420,2176387629,0.8047,0.4106,0.1655,-40.24,-8.66,-11.89
421,2176392628,0.7905,0.6431,0.2280,-49.82,-8.84,-11.59
422,2176397629,0.7720,0.9126,-0.0088,-59.70,-10.30,-11.16
423,2176402627,0.7490,1.0718,0.0034,-69.88,-12.26,-10.49
424,2176407629,0.7207,1.0498,0.2246,-80.49,-12.93,-9.15
425,2176412629,0.6953,0.8926,0.1797,-91.10,-13.54,-7.32
426,2176417628,0.6772,0.7417,0.0161,-100.98,-15.49,-4.88
427,2176422627,0.6685,0.6978,0.1035,-109.94,-17.26,-2.13
428,2176427629,0.6675,0.7642,0.2534,-117.32,-17.87,0.55
429,2176432629,0.6826,0.8750,0.1719,-122.99,-18.66,3.23
430,2176437628,0.6943,0.9614,0.1025,-127.01,-19.82,5.85
431,2176442629,0.6929,0.9648,0.2056,-130.18,-20.61,8.41
432,2176447628,0.6997,0.8921,0.2686,-133.11,-20.55,10.98
433,2176452629,0.7139,0.7959,0.1807,-136.46,-20.85,13.72
434,2176457629,0.7256,0.7490,0.1519,-140.85,-21.65,16.28
435,2176462627,0.7324,0.7559,0.2383,-146.65,-21.52,18.48
436,2176467631,0.7363,0.8081,0.2339,-154.02,-21.40,20.43
437,2176472628,0.7339,0.8589,0.1455,-162.38,-22.07,22.01
438,2176477629,0.7183,0.8848,0.1489,-171.34,-23.17,23.41
439,2176482627,0.7109,0.8550,0.2129,-180.37,-23.90,24.57
440,2176487627,0.7085,0.7866,0.1914,-188.84,-24.70,25.67
441,2176493113,0.7124,0.7202,0.1533,-196.34,-25.85,26.59
442,2176497629,0.7109,0.7061,0.1948,-202.93,-26.95,27.74
443,2176502629,0.7144,0.7183,0.2334,-208.17,-27.50,28.48
444,2176507629,0.7217,0.7397,0.1914,-212.50,-28.23,28.78
445,2176512627,0.7275,0.7490,0.1562,-216.10,-29.39,28.90
446,2176517629,0.7368,0.7461,0.1841,-219.15,-29.76,28.66
447,2176522628,0.7358,0.7231,0.2017,-221.83,-30.00,28.23
448,2176527629,0.7412,0.7036,0.1641,-223.66,-30.30,27.68
449,2176532627,0.7412,0.7012,0.1616,-224.82,-30.55,27.01
450,2176537629,0.7402,0.6870,0.1987,-225.12,-30.49,25.98
451,2176542628,0.7383,0.6714,0.2061,-224.45,-30.06,25.18
452,2176547629,0.7578,0.6704,0.1987,-223.17,-29.76,24.45
453,2176552627,0.7578,0.6748,0.2134,-221.46,-29.27,23.84
454,2176557629,0.7554,0.6753,0.2441,-219.51,-28.66,23.11
455,2176562629,0.7520,0.6606,0.2441,-217.38,-28.11,22.26
456,2176567629,0.7559,0.6528,0.2256,-214.88,-27.99,21.34
457,2176572627,0.7568,0.6553,0.2480,-212.07,-27.68,20.24
458,2176577629,0.7524,0.6709,0.2715,-209.15,-27.44,18.96
459,2176582629,0.7622,0.6836,0.2681,-206.04,-27.26,17.44
460,2176587629,0.7856,0.6963,0.2739,-202.87,-27.20,15.98
461,2176592627,0.7881,0.6987,0.3057,-199.88,-26.83,14.57
462,2176597629,0.7783,0.6953,0.3271,-196.95,-26.22,13.17
463,2176602629,0.7715,0.6792,0.2954,-194.57,-25.91,11.95
464,2176607629,0.7490,0.6616,0.3154,-192.56,-25.85,11.10
465,2176612629,0.7280,0.6479,0.3384,-190.79,-25.61,10.55
466,2176617629,0.7197,0.6553,0.3276,-189.63,-25.73,10.24
467,2176622628,0.7012,0.6992,0.3218,-188.41,-25.67,9.63
468,2176627629,0.6919,0.6387,0.3018,-187.07,-25.91,9.21
469,2176632627,0.6924,0.6479,0.3481,-185.91,-25.98,9.21
470,2176637627,0.7227,0.6309,0.3584,-184.82,-26.16,9.21
471,2176642629,0.7344,0.6387,0.3638,-183.54,-26.10,9.45
472,2176647628,0.7227,0.6577,0.3862,-182.38,-25.85,9.39
473,2176652629,0.7227,0.6699,0.4116,-181.16,-25.79,9.15
474,2176657628,0.7129,0.6729,0.4111,-179.82,-25.55,9.02
475,2176662722,0.7017,0.7061,0.4263,-178.17,-25.30,8.78
476,2176667629,0.6982,0.6914,0.4351,-175.85,-25.06,8.35
477,2176672627,0.6621,0.7422,0.4189,-172.62,-24.88,7.99
478,2176677629,0.6880,0.6421,0.3838,-168.11,-24.94,7.62
479,2176682627,0.7271,0.5830,0.4033,-163.05,-24.94,7.99
480,2176687629,0.7271,0.6069,0.4761,-157.74,-24.57,8.84
481,2176692629,0.7168,0.6157,0.4863,-152.56,-23.78,9.39
482,2176697629,0.6997,0.6138,0.4766,-147.80,-22.87,9.88
483,2176702627,0.6660,0.6504,0.4863,-143.29,-21.89,10.18
484,2176707627,0.6216,0.6660,0.4541,-138.05,-20.98,9.94
485,2176712627,0.7095,0.5854,0.4233,-132.56,-20.37,10.00
486,2176717627,0.7642,0.5698,0.4360,-127.38,-19.88,10.61
487,2176722628,0.8003,0.5557,0.4609,-122.13,-19.21,11.22
488,2176727629,0.7993,0.5566,0.4634,-117.26,-18.48,11.77
489,2176732627,0.7681,0.5586,0.4673,-112.80,-17.74,12.32
490,2176737627,0.7319,0.5552,0.4844,-108.60,-16.89,12.68
491,2176742828,0.6997,0.5527,0.5151,-104.88,-16.04,13.11
492,2176747629,0.6895,0.5425,0.5249,-101.71,-14.94,13.54
493,2176752628,0.7070,0.5234,0.5161,-98.72,-13.90,13.84
494,2176757629,0.7202,0.5137,0.5151,-96.04,-13.11,14.21
495,2176762628,0.7212,0.5239,0.5327,-93.48,-12.32,14.51
496,2176767631,0.7290,0.5190,0.5352,-91.04,-11.34,14.57
497,2176772627,0.7388,0.5078,0.5200,-88.72,-10.43,14.76
498,2176777629,0.7451,0.4985,0.5234,-86.46,-9.63,15.00
499,2176782628,0.7534,0.4961,0.5229,-84.51,-8.84,14.94
500,2176787627,0.7710,0.4873,0.5098,-82.74,-8.17,15.00
501,2176792629,0.7866,0.4883,0.5220,-81.28,-7.50,14.94
502,2176797629,0.7871,0.5015,0.5337,-79.94,-6.77,14.39
503,2176802628,0.7764,0.5332,0.5449,-78.29,-5.98,13.78
504,2176807627,0.7690,0.5034,0.6060,-76.46,-4.76,12.62
505,2176812627,0.7490,0.4409,0.5825,-75.06,-3.66,12.01
506,2176817644,0.7412,0.5688,0.6138,-73.90,-2.87,11.28
507,2176822629,0.7983,0.5264,0.5518,-72.87,-2.38,9.76
508,2176827629,0.8403,0.4634,0.5347,-70.55,-2.32,8.66
509,2176832629,0.8003,0.4209,0.6450,-67.26,-1.28,7.68
510,2176837630,0.7593,0.3589,0.6978,-63.48,0.67,7.01
511,2176842629,0.7441,0.3682,0.6748,-59.57,2.74,6.83
512,2176847628,0.7627,0.4204,0.6626,-55.43,4.94,6.52
513,2176852627,0.8057,0.4517,0.7700,-51.59,7.44,5.98
514,2176857627,0.9658,0.3989,0.8784,-49.70,8.96,5.55
515,2176862630,0.9077,0.3535,0.9390,-50.79,9.57,5.18
516,2176867627,0.9028,0.3135,0.9570,-53.96,9.09,4.51
517,2176872629,0.8882,0.3120,0.9644,-59.15,7.99,3.54
518,2176877629,0.8848,0.3218,0.9868,-64.70,7.07,2.50
519,2176882627,0.8994,0.3516,0.9346,-69.39,5.98,1.46
520,2176887627,0.9219,0.3838,0.8564,-72.50,4.88,0.61
521,2176892627,0.9116,0.3901,0.8403,-74.09,3.72,-0.06
522,2176897627,0.8989,0.3730,0.8638,-74.70,3.35,-0.73
523,2176902629,0.8755,0.3779,0.8638,-75.00,3.11,-1.40
524,2176907627,0.8472,0.3521,0.8369,-75.37,2.74,-2.07
525,2176912627,0.8140,0.3569,0.7876,-75.98,2.01,-2.87
526,2176917627,0.8511,0.3408,0.8086,-76.65,0.67,-3.54
527,2176922631,0.8320,0.3418,0.8135,-77.87,-0.49,-4.39
528,2176927628,0.7974,0.3472,0.7319,-79.15,-1.83,-5.24
529,2176932627,0.7837,0.3579,0.7129,-80.00,-3.05,-5.91
530,2176937629,0.7778,0.3975,0.7266,-80.00,-3.54,-6.34
531,2176942627,0.7783,0.4429,0.7104,-79.15,-3.96,-6.52
532,2176947628,0.7632,0.4727,0.6943,-78.17,-4.45,-6.28
533,2176952629,0.7305,0.5254,0.7417,-77.38,-4.51,-5.98
534,2176957629,0.6587,0.5938,0.7666,-77.26,-4.57,-4.88
535,2176962630,0.7427,0.6089,0.6836,-76.95,-5.43,-3.17
536,2176967628,0.8057,0.6655,0.6870,-75.73,-6.59,-0.79
537,2176972631,0.7954,0.7085,0.7778,-74.57,-7.32,1.83
538,2176977627,0.7607,0.7021,0.7817,-74.27,-8.29,4.76
539,2176982629,0.7539,0.6807,0.7500,-74.45,-9.70,7.99
540,2176987629,0.7627,0.6660,0.7812,-74.88,-10.91,11.46
541,2176992629,0.7500,0.6587,0.7905,-74.94,-11.65,15.06
542,2176997628,0.7349,0.6499,0.7529,-74.51,-12.38,18.72
543,2177002627,0.7495,0.5918,0.7251,-73.48,-12.62,22.56
544,2177007627,0.8325,0.5049,0.7695,-71.95,-12.13,26.59
545,2177012630,0.7515,0.4531,0.7568,-70.79,-11.04,29.88
546,2177017629,0.6821,0.3208,0.7407,-71.83,-10.12,32.44
547,2177022630,0.6714,0.2500,0.8188,-75.24,-8.60,34.51
548,2177027628,0.7246,0.2202,0.8394,-80.18,-7.07,35.98
549,2177032629,0.7388,0.1860,0.7969,-85.43,-5.85,37.13
550,2177037628,0.7734,0.1792,0.7964,-90.91,-5.12,37.93
551,2177042629,0.7812,0.1685,0.8613,-96.59,-4.27,38.35
552,2177047627,0.7798,0.1636,0.8896,-102.32,-3.35,38.66
553,2177052630,0.7690,0.1553,0.8735,-108.11,-2.87,38.78
554,2177057629,0.7681,0.1582,0.8804,-113.35,-2.26,38.84
555,2177062629,0.7695,0.1782,0.8940,-118.17,-1.71,38.84
556,2177067628,0.7910,0.1973,0.8862,-122.50,-1.46,38.78
557,2177072630,0.8198,0.2144,0.8740,-126.52,-1.34,38.60
558,2177077629,0.8257,0.2324,0.8760,-130.49,-1.34,38.35
559,2177082629,0.8208,0.2451,0.8853,-134.39,-1.77,38.17
560,2177087627,0.8159,0.2534,0.8862,-137.80,-2.38,37.80
561,2177092627,0.8247,0.2686,0.8799,-140.43,-3.05,37.44
562,2177097627,0.8311,0.2764,0.8760,-141.89,-3.84,37.20
563,2177102627,0.8252,0.2783,0.8765,-141.77,-4.45,37.13
564,2177107628,0.7964,0.2754,0.8530,-140.12,-5.06,37.38
565,2177112631,0.7769,0.2627,0.8403,-137.38,-5.67,37.44
566,2177117628,0.7754,0.2490,0.8218,-133.60,-6.04,37.62
567,2177122628,0.7808,0.2188,0.8003,-129.33,-6.46,37.62
568,2177127630,0.7739,0.1846,0.7817,-124.88,-6.89,37.56
569,2177132629,0.7705,0.1426,0.7720,-120.55,-7.20,37.26
570,2177137627,0.7661,0.1221,0.7646,-116.71,-7.38,36.65
571,2177142708,0.7705,0.0854,0.7666,-113.35,-7.56,35.79
572,2177147631,0.7651,0.0620,0.7573,-110.49,-7.74,34.82
573,2177152631,0.7700,0.0449,0.7520,-108.05,-7.87,33.60
574,2177157628,0.7651,0.0327,0.7769,-106.04,-7.93,32.32
575,2177162629,0.7661,0.0269,0.7852,-104.33,-7.87,30.79
576,2177167628,0.7710,0.0298,0.7949,-102.80,-7.87,29.21
577,2177172627,0.7700,0.0327,0.8081,-101.89,-7.93,27.56
578,2177177627,0.7729,0.0352,0.8208,-101.46,-7.80,25.98
579,2177182951,0.7725,0.0293,0.8262,-101.65,-8.05,23.96
580,2177187629,0.7642,0.0166,0.8267,-102.20,-8.05,22.62
581,2177192627,0.7559,0.0151,0.8262,-103.41,-8.23,21.04
582,2177197629,0.7720,0.0234,0.7974,-105.00,-8.48,19.57
583,2177202627,0.7847,0.0439,0.7930,-106.46,-8.54,18.29
584,2177207627,0.7720,0.0503,0.7754,-107.80,-8.54,16.89
585,2177212629,0.7676,0.0469,0.7607,-108.54,-8.66,15.79
586,2177217627,0.7700,0.0415,0.7529,-108.29,-8.48,15.00
587,2177222627,0.7661,0.0337,0.7598,-107.20,-8.41,14.27
588,2177227627,0.7520,0.0420,0.7314,-105.79,-8.05,13.66
589,2177232631,0.7646,0.0342,0.7246,-103.96,-7.20,12.87
590,2177237630,0.7744,0.0039,0.7393,-102.56,-6.16,12.56
591,2177242681,0.7686,0.0059,0.6562,-100.67,-5.24,12.13
592,2177247627,0.7617,0.0181,0.6782,-98.72,-4.33,11.59
593,2177252627,0.7603,0.0190,0.7202,-96.59,-2.80,11.28
594,2177257627,0.7651,0.0020,0.6924,-94.63,-1.40,10.91
595,2177262630,0.7666,-0.0083,0.6963,-93.11,-0.24,10.61
596,2177267629,0.7427,-0.0151,0.7334,-92.26,1.28,10.30
597,2177272628,0.7700,-0.0234,0.7412,-92.38,2.44,10.06
598,2177277627,0.7905,-0.0229,0.7173,-93.05,3.35,9.88
599,2177282627,0.7646,-0.0068,0.7505,-94.45,4.15,9.76
600,2177287627,0.7729,-0.0356,0.7910,-96.89,5.12,9.82
601,2177292631,0.7588,-0.0566,0.7271,-99.27,6.10,10.12
602,2177297628,0.7739,-0.0303,0.6831,-101.34,6.65,10.49
603,2177302629,0.7686,-0.0039,0.7383,-102.99,7.62,11.04
604,2177308007,0.7544,-0.0107,0.7495,-104.57,9.02,11.83
605,2177312629,0.7573,-0.0063,0.7026,-105.49,10.12,12.44
606,2177317629,0.7612,-0.0117,0.7080,-106.16,10.98,13.23
607,2177322628,0.7559,-0.0205,0.7329,-106.77,12.20,14.09
608,2177327629,0.7534,-0.0317,0.7261,-107.20,13.23,15.00
609,2177332630,0.7583,-0.0371,0.7075,-107.56,14.33,16.04
610,2177337629,0.7642,-0.0435,0.7231,-107.93,15.30,16.95
611,2177342628,0.7622,-0.0513,0.7178,-108.29,16.28,17.87
612,2177347629,0.7500,-0.0610,0.7017,-108.48,17.38,18.48
613,2177352627,0.7383,-0.0732,0.7051,-108.90,18.11,19.21
614,2177357927,0.7334,-0.0913,0.7017,-109.51,19.21,19.76
615,2177362631,0.7373,-0.1064,0.6973,-110.00,20.18,20.06
616,2177367628,0.7471,-0.1143,0.6909,-110.61,21.16,20.30
617,2177372628,0.7578,-0.1143,0.6914,-111.10,22.07,20.49
618,2177377627,0.7583,-0.1162,0.6973,-111.71,23.17,20.61
619,2177382631,0.7617,-0.1182,0.7041,-112.68,23.96,20.67
620,2177387627,0.7510,-0.1226,0.7109,-114.09,24.82,20.73
621,2177392627,0.7383,-0.1270,0.7070,-115.73,25.49,20.73
622,2177397627,0.7407,-0.1372,0.6987,-117.26,26.22,20.79
623,2177402631,0.7358,-0.1484,0.6885,-118.72,26.77,21.04
624,2177407628,0.7407,-0.1626,0.6890,-119.94,27.32,21.16
625,2177412627,0.7314,-0.1665,0.6875,-120.55,27.80,21.40
626,2177417627,0.7319,-0.1650,0.6948,-121.10,28.35,21.71
627,2177422627,0.7280,-0.1675,0.6968,-121.34,29.09,22.01
628,2177427632,0.7349,-0.1611,0.6836,-120.91,30.12,22.32
629,2177432627,0.7305,-0.1606,0.6797,-120.24,30.79,22.50
630,2177437629,0.7236,-0.1606,0.6802,-118.90,31.77,22.87
631,2177442627,0.7095,-0.1562,0.6729,-117.20,32.56,23.23
632,2177447627,0.7153,-0.1592,0.6577,-115.06,33.72,23.72
633,2177452629,0.7134,-0.1641,0.6650,-112.68,34.82,24.15
634,2177457629,0.7051,-0.1748,0.6572,-110.43,35.91,24.51
635,2177462629,0.6968,-0.1968,0.6543,-108.60,37.01,24.82
636,2177467627,0.6958,-0.2202,0.6621,-107.20,37.93,24.94
637,2177472627,0.7017,-0.2388,0.6641,-106.40,38.90,25.00
638,2177477630,0.7144,-0.2534,0.6597,-105.91,39.82,24.57
639,2177482630,0.7100,-0.2734,0.6616,-105.98,40.79,24.21
640,2177487629,0.7041,-0.2900,0.6577,-106.34,41.52,23.66
641,2177492628,0.7061,-0.3047,0.6621,-106.89,42.32,22.93
642,2177497629,0.7056,-0.3125,0.6577,-107.50,43.05,22.26
643,2177502629,0.6987,-0.3271,0.6646,-107.87,43.90,21.46
644,2177507629,0.6924,-0.3438,0.6548,-107.74,44.63,20.67
645,2177512628,0.6865,-0.3467,0.6602,-106.95,45.43,20.06
646,2177517629,0.6733,-0.3462,0.6719,-105.49,46.16,19.51
647,2177522630,0.6895,-0.3486,0.6948,-102.74,46.89,18.96
648,2177527629,0.7090,-0.3525,0.7251,-100.12,47.26,18.72
649,2177532627,0.7104,-0.3521,0.7598,-95.49,47.32,18.41
650,2177537630,0.6938,-0.3467,0.7803,-88.96,46.46,17.99
651,2177542629,0.6763,-0.3438,0.7725,-84.57,45.73,17.74
652,2177547628,0.6787,-0.3330,0.7529,-82.32,45.12,17.50
653,2177552628,0.6694,-0.3242,0.7324,-80.73,44.15,17.38
654,2177557631,0.6646,-0.3169,0.7139,-80.85,43.48,17.26
655,2177562629,0.6714,-0.3164,0.7036,-81.89,42.87,17.13
656,2177567628,0.6714,-0.3174,0.6958,-83.35,42.44,17.20
657,2177572629,0.6655,-0.3237,0.6768,-84.82,42.50,17.13
658,2177577628,0.6606,-0.3271,0.6807,-86.22,42.56,17.20
659,2177582629,0.6558,-0.3364,0.6670,-87.20,42.99,17.38
660,2177587628,0.6401,-0.3452,0.6528,-88.29,43.60,17.44
661,2177592631,0.6465,-0.3511,0.6504,-89.33,44.39,17.62
662,2177597627,0.6431,-0.3589,0.6421,-90.24,45.18,17.74
663,2177602627,0.6299,-0.3799,0.6406,-91.71,46.40,17.99
664,2177607631,0.6216,-0.3906,0.6309,-93.41,47.26,18.23
665,2177612629,0.6328,-0.3955,0.6221,-95.30,48.35,18.48
666,2177617628,0.6426,-0.4028,0.6221,-97.26,49.09,18.54
667,2177622627,0.6416,-0.3999,0.6260,-98.60,49.88,18.60
668,2177627629,0.6338,-0.4092,0.6416,-99.09,50.61,18.60
669,2177632627,0.6255,-0.4092,0.6382,-98.54,51.10,18.78
670,2177637631,0.6250,-0.4097,0.6431,-97.26,51.59,19.02
671,2177642629,0.6167,-0.4160,0.6523,-95.12,52.01,19.27
672,2177647629,0.6157,-0.4170,0.6475,-92.62,52.07,19.51
673,2177652627,0.6147,-0.4233,0.6343,-90.12,52.56,19.76
674,2177657631,0.6074,-0.4331,0.6343,-87.80,53.11,20.12
675,2177662627,0.5806,-0.4385,0.6167,-86.22,53.54,20.43
676,2177667630,0.5693,-0.4551,0.6118,-85.49,54.33,20.67
677,2177672628,0.5698,-0.4658,0.5972,-85.85,55.06,20.85
678,2177677627,0.5674,-0.4771,0.5942,-87.26,55.73,20.98
679,2177682985,0.5537,-0.4854,0.5850,-89.33,56.28,21.04
680,2177687629,0.5503,-0.4941,0.5923,-91.59,56.77,20.91
681,2177692628,0.5693,-0.4980,0.6089,-93.60,57.32,20.79
682,2177697627,0.5757,-0.4976,0.6279,-94.21,57.87,20.73
683,2177702631,0.5723,-0.5029,0.6567,-92.62,58.11,20.43
684,2177707627,0.5659,-0.4980,0.6665,-89.15,58.05,20.37
685,2177712629,0.5630,-0.5112,0.6655,-84.15,57.87,20.30
686,2177717628,0.5615,-0.5200,0.6440,-79.09,57.74,20.12
687,2177722627,0.5728,-0.5552,0.6372,-74.94,57.68,20.00
688,2177727627,0.5586,-0.5732,0.6240,-72.74,57.93,19.63
689,2177732627,0.5552,-0.5757,0.5996,-72.32,58.23,19.02
690,2177737631,0.5630,-0.5776,0.5991,-72.56,58.66,18.35
691,2177742627,0.5601,-0.5801,0.5938,-72.87,59.27,17.68
692,2177747629,0.5547,-0.5864,0.6016,-73.11,60.00,17.01
693,2177752628,0.5645,-0.5991,0.6035,-73.23,60.49,16.28
694,2177757727,0.5688,-0.6064,0.6050,-73.54,61.04,15.55
695,2177762627,0.5591,-0.6099,0.6113,-74.09,61.46,14.82
696,2177767630,0.5503,-0.6104,0.6138,-75.12,61.71,14.09
697,2177772629,0.5459,-0.6099,0.6089,-76.34,61.95,13.29
698,2177777628,0.5483,-0.6055,0.6104,-77.56,61.89,12.68
699,2177782629,0.5371,-0.6079,0.5967,-78.84,61.95,12.07
700,2177787627,0.5190,-0.6099,0.5942,-79.94,62.01,11.46
701,2177792627,0.5137,-0.6206,0.5869,-80.91,62.44,11.04
702,2177797630,0.5112,-0.6260,0.5718,-81.22,62.68,10.79
703,2177802629,0.5020,-0.6284,0.5596,-80.98,63.11,10.43
704,2177807628,0.5020,-0.6357,0.5425,-79.94,63.66,10.18
705,2177812627,0.4922,-0.6421,0.5342,-78.05,64.39,9.94
706,2177817629,0.4902,-0.6533,0.5259,-75.55,65.30,9.82
707,2177822627,0.4917,-0.6519,0.5220,-72.80,66.46,9.76
708,2177827723,0.4912,-0.6626,0.5171,-70.00,67.87,9.57
709,2177832699,0.4727,-0.6719,0.5205,-67.62,69.02,9.51
710,2177837629,0.4722,-0.6738,0.5249,-65.91,70.06,9.45
711,2177842627,0.4707,-0.6787,0.5405,-64.76,70.91,9.51
712,2177847627,0.4634,-0.6812,0.5522,-64.51,71.65,9.33
713,2177852631,0.4463,-0.6836,0.5679,-65.30,72.13,9.27
714,2177857627,0.4424,-0.6851,0.5786,-66.83,72.68,9.27
715,2177862629,0.4468,-0.6890,0.5840,-68.66,73.05,9.27
716,2177867629,0.4468,-0.6973,0.5933,-70.12,73.23,9.21
717,2177872627,0.4375,-0.7061,0.5947,-70.67,73.60,9.21
718,2177877627,0.4351,-0.7070,0.6060,-70.30,73.90,9.21
719,2177882628,0.4375,-0.7124,0.6069,-69.09,74.27,9.09
720,2177887629,0.4526,-0.7075,0.6050,-67.38,74.70,8.78
721,2177892627,0.4551,-0.7100,0.5977,-65.67,75.18,8.35
722,2177897630,0.4648,-0.7056,0.5981,-63.78,75.61,7.74
723,2177902629,0.4653,-0.7041,0.5977,-62.07,75.73,7.13
724,2177907627,0.4624,-0.6992,0.5962,-60.49,75.98,6.52
725,2177912627,0.4512,-0.6958,0.5859,-59.39,76.04,5.79
726,2177917629,0.4502,-0.6924,0.5874,-58.84,76.04,5.24
727,2177922629,0.4395,-0.6880,0.5830,-58.35,76.28,4.70
728,2177927628,0.4355,-0.6865,0.5840,-58.29,76.65,4.27
729,2177933137,0.4248,-0.6826,0.5815,-58.48,77.07,4.02
730,2177937630,0.4170,-0.6851,0.5854,-58.29,77.32,3.84
731,2177942627,0.4180,-0.6885,0.5894,-57.32,77.68,3.78
732,2177947627,0.4136,-0.6880,0.5942,-55.85,78.05,3.84
733,2177952629,0.4009,-0.6865,0.5967,-54.15,78.29,4.09
734,2177957628,0.3877,-0.6924,0.5977,-52.99,78.96,4.33
735,2177962627,0.3735,-0.6992,0.5928,-52.07,79.45,4.57
736,2177967629,0.3755,-0.6997,0.6021,-51.59,79.76,5.00
737,2177972629,0.3848,-0.6953,0.6133,-51.65,79.88,5.12
738,2177977629,0.3794,-0.6963,0.6250,-52.32,80.12,5.24
739,2177982628,0.3789,-0.6987,0.6372,-53.48,79.88,5.24
740,2177987629,0.3823,-0.7075,0.6406,-54.76,79.63,5.18
741,2177992627,0.3945,-0.7100,0.6450,-55.98,79.09,5.06
742,2177997630,0.3901,-0.7090,0.6499,-57.13,78.23,4.88
743,2178002629,0.3853,-0.7080,0.6519,-57.93,77.62,4.57
744,2178007627,0.3892,-0.7109,0.6421,-58.35,76.95,4.27
745,2178012629,0.3975,-0.7104,0.6250,-58.35,76.28,4.02
746,2178017628,0.3906,-0.7085,0.6128,-57.68,75.98,3.72
747,2178022629,0.3804,-0.7104,0.5972,-56.89,75.73,3.48
748,2178027627,0.3701,-0.7085,0.5942,-55.61,75.73,3.41
749,2178032627,0.3682,-0.7002,0.5874,-54.27,75.98,3.48
750,2178037631,0.3696,-0.6987,0.5776,-52.93,76.10,3.54
751,2178042628,0.3643,-0.7012,0.5708,-52.01,76.34,3.54
752,2178047631,0.3613,-0.7031,0.5659,-51.16,76.52,3.84
753,2178052629,0.3706,-0.7080,0.5718,-50.43,76.83,4.09
754,2178057628,0.3691,-0.7104,0.5679,-49.57,77.20,4.39
755,2178062629,0.3701,-0.7158,0.5781,-48.66,77.56,4.94
756,2178067627,0.3760,-0.7256,0.5879,-47.32,77.74,5.49
757,2178072631,0.3691,-0.7285,0.5967,-45.79,77.87,6.10
758,2178077628,0.3589,-0.7358,0.5972,-44.70,77.87,6.77
759,2178082627,0.3628,-0.7412,0.5928,-44.09,77.93,7.56
760,2178087627,0.3691,-0.7407,0.5928,-43.78,77.74,8.41
761,2178093093,0.3750,-0.7402,0.5840,-43.84,77.32,9.15
762,2178097629,0.3662,-0.7412,0.5972,-43.90,76.83,9.82
763,2178102627,0.3677,-0.7456,0.5991,-43.78,76.59,10.49
764,2178107630,0.3784,-0.7485,0.5850,-43.54,76.16,10.98
765,2178112629,0.3843,-0.7485,0.5786,-43.35,75.85,11.40
766,2178117628,0.3916,-0.7520,0.5693,-43.41,75.98,11.71
767,2178122629,0.3950,-0.7505,0.5645,-43.84,76.10,11.89
768,2178127627,0.3950,-0.7515,0.5508,-44.09,76.04,12.13
769,2178132629,0.3965,-0.7563,0.5449,-44.15,76.46,12.26
770,2178137630,0.3906,-0.7617,0.5439,-44.21,76.71,12.20
771,2178142629,0.3950,-0.7617,0.5376,-44.15,77.07,12.07
772,2178147630,0.4009,-0.7578,0.5400,-43.66,77.32,11.83
773,2178152629,0.3940,-0.7642,0.5444,-43.05,77.80,11.65
774,2178157628,0.3804,-0.7578,0.5488,-42.44,78.23,11.34
775,2178162629,0.3711,-0.7617,0.5386,-42.80,78.78,11.28
776,2178167627,0.3721,-0.7705,0.5361,-43.66,78.96,11.16
777,2178172631,0.3726,-0.7656,0.5327,-45.12,79.15,11.16
778,2178177628,0.3662,-0.7681,0.5361,-46.71,79.33,11.22
779,2178182629,0.3486,-0.7686,0.5479,-47.74,79.27,11.34
780,2178187628,0.3428,-0.7715,0.5537,-48.05,79.21,11.59
781,2178192629,0.3574,-0.7739,0.5659,-47.07,78.96,12.13
782,2178197628,0.3560,-0.7729,0.5698,-43.41,78.54,12.44
783,2178202631,0.3462,-0.7715,0.5659,-38.54,77.87,12.74
784,2178207627,0.3447,-0.7710,0.5542,-34.09,77.32,13.17
785,2178212975,0.3530,-0.7690,0.5518,-30.55,77.01,13.41
786,2178217631,0.3647,-0.7739,0.5566,-27.99,76.89,13.48
787,2178222629,0.3682,-0.7817,0.5669,-25.79,76.71,13.66
788,2178227627,0.3613,-0.7817,0.5654,-23.84,76.34,13.66
789,2178232629,0.3608,-0.7910,0.5693,-22.38,75.91,13.60
790,2178237629,0.3574,-0.7974,0.5728,-20.98,75.18,13.54
791,2178242629,0.3540,-0.7939,0.5713,-20.30,74.39,13.29
792,2178247628,0.3433,-0.7925,0.5723,-20.24,73.54,13.05
793,2178252629,0.3379,-0.7900,0.5776,-20.61,72.62,12.87
794,2178257627,0.3374,-0.7969,0.5933,-20.91,71.83,12.50
795,2178262627,0.3271,-0.7993,0.5952,-20.43,70.91,12.32
796,2178267629,0.3271,-0.7988,0.5996,-20.85,70.18,12.07
797,2178273073,0.3213,-0.8037,0.6074,-22.01,69.39,11.77
798,2178277629,0.3145,-0.8037,0.6250,-22.87,68.41,11.46
799,2178282629,0.3101,-0.8091,0.6201,-24.15,67.38,11.22
800,2178287630,0.3008,-0.8081,0.6230,-26.16,66.46,11.16
801,2178292627,0.2905,-0.8096,0.6255,-28.35,65.37,11.16
802,2178297628,0.2847,-0.8066,0.6206,-29.70,64.39,11.28
803,2178302629,0.2861,-0.8110,0.6226,-30.24,63.35,11.46
804,2178307627,0.2847,-0.8188,0.6304,-29.02,62.32,11.83
805,2178312627,0.2744,-0.8145,0.6201,-26.22,60.85,12.20
806,2178317629,0.2690,-0.8228,0.5952,-23.72,59.88,12.74
807,2178322629,0.2822,-0.8335,0.5898,-21.46,58.90,13.23
808,2178327776,0.2783,-0.8433,0.6006,-17.56,57.87,13.72
809,2178332629,0.2690,-0.8457,0.5933,-13.96,57.13,13.96
810,2178337628,0.2661,-0.8506,0.5742,-11.89,56.59,14.15
811,2178342627,0.2700,-0.8535,0.5679,-10.55,56.10,14.33
812,2178347631,0.2749,-0.8716,0.5610,-9.88,55.37,14.27
813,2178352627,0.2686,-0.8818,0.5532,-9.82,54.94,14.21
814,2178357627,0.2559,-0.8882,0.5405,-10.61,54.76,14.02
815,2178362627,0.2563,-0.8931,0.5337,-12.01,54.51,13.60
816,2178367627,0.2563,-0.9019,0.5337,-13.35,54.45,13.17
817,2178372629,0.2612,-0.8999,0.5190,-14.94,54.45,12.74
818,2178377630,0.2554,-0.9053,0.5229,-15.85,54.70,12.07
819,2178382627,0.2485,-0.9014,0.5239,-15.49,54.70,11.71
820,2178387962,0.2427,-0.8994,0.5166,-14.76,54.70,11.16
821,2178392629,0.2466,-0.8975,0.4858,-15.00,54.88,10.79
822,2178397628,0.2539,-0.8931,0.4780,-15.79,55.00,10.49
823,2178402627,0.2422,-0.8955,0.4673,-16.46,55.30,10.24
824,2178407627,0.2349,-0.8887,0.4629,-17.56,55.43,10.24
825,2178412627,0.2246,-0.8901,0.4644,-18.41,55.85,10.30
826,2178417627,0.2109,-0.8896,0.4536,-18.35,56.10,10.67
827,2178422627,0.1963,-0.8818,0.4409,-18.11,56.34,11.10
828,2178427627,0.1812,-0.8779,0.4390,-17.50,56.59,11.59
829,2178432627,0.1699,-0.8872,0.4443,-15.91,56.71,12.26
830,2178437627,0.1655,-0.9009,0.4683,-12.80,56.65,12.80
831,2178442627,0.1587,-0.9009,0.4702,-7.44,56.65,13.23
832,2178447627,0.1431,-0.8999,0.4585,-2.44,56.59,13.66
833,2178452627,0.1494,-0.9087,0.4609,1.65,56.71,13.90
834,2178458115,0.1562,-0.9131,0.4736,5.30,56.89,14.02
835,2178462639,0.1631,-0.9092,0.4766,7.62,57.20,13.78
836,2178467628,0.1685,-0.9111,0.4824,7.80,57.44,13.35
837,2178472627,0.1768,-0.9111,0.4941,6.10,57.50,12.87
838,2178477924,0.1724,-0.9009,0.4888,2.50,57.68,12.32
839,2178482629,0.1768,-0.8979,0.4849,-3.05,58.05,11.83
840,2178487629,0.1758,-0.9033,0.4912,-9.27,58.11,11.28
841,2178492629,0.1670,-0.9053,0.4985,-14.63,58.29,11.10
842,2178497628,0.1606,-0.9102,0.5020,-17.26,58.11,10.91
843,2178502629,0.1641,-0.9062,0.4897,-18.54,58.17,10.98
844,2178507627,0.1455,-0.8965,0.4741,-19.70,58.48,11.28
845,2178512627,0.1353,-0.8784,0.4609,-20.85,58.66,11.77
846,2178517629,0.1294,-0.8706,0.4424,-21.46,59.21,12.62
847,2178522628,0.1245,-0.8447,0.4355,-21.34,59.57,13.35
848,2178527627,0.1055,-0.8379,0.4399,-20.79,60.00,14.57
849,2178532627,0.0884,-0.8320,0.4360,-19.15,60.30,15.73
850,2178537631,0.0518,-0.8462,0.4048,-17.13,60.61,16.77
851,2178542629,0.0850,-0.8462,0.4121,-14.82,60.79,18.11
852,2178547628,0.0854,-0.8179,0.4263,-10.98,61.10,19.33
853,2178552631,0.0811,-0.7998,0.4487,-6.89,61.77,20.37
854,2178557629,0.0610,-0.7964,0.4165,-3.60,62.32,21.04
855,2178562631,0.0820,-0.8135,0.4312,-0.98,62.80,21.77
856,2178567628,0.0615,-0.8247,0.4487,0.43,63.35,22.38
857,2178572629,0.0610,-0.8281,0.4424,0.18,63.96,22.87
858,2178577630,0.0649,-0.8271,0.4297,-1.83,64.27,23.23
859,2178582627,0.0615,-0.8276,0.4443,-5.30,64.63,23.54
860,2178588304,0.0679,-0.8291,0.4492,-10.37,64.76,23.90
861,2178592629,0.0776,-0.8232,0.4351,-13.78,64.70,23.96
862,2178597628,0.0742,-0.8281,0.4360,-17.99,64.63,24.21
863,2178602630,0.0649,-0.8291,0.4409,-21.40,64.57,24.39
864,2178607627,0.0640,-0.8379,0.4331,-23.29,64.09,24.51
865,2178612629,0.0596,-0.8369,0.4272,-23.35,63.78,24.76
866,2178617628,0.0454,-0.8223,0.4385,-21.16,63.17,24.88
867,2178622629,0.0415,-0.8735,0.4150,-17.74,62.80,25.12
868,2178627627,0.0913,-0.8623,0.4302,-11.77,62.20,25.30
869,2178632629,0.0679,-0.8657,0.4326,-4.33,62.13,25.24
870,2178637628,0.0796,-0.8770,0.4492,3.66,61.95,25.00
871,2178642629,0.0898,-0.8745,0.4370,11.16,62.07,24.63
872,2178647713,0.0767,-0.8706,0.4287,16.83,61.52,23.90
873,2178652629,0.0610,-0.8730,0.4404,20.18,61.16,23.23
874,2178657629,0.0483,-0.8809,0.4575,20.98,60.43,22.38
875,2178662629,0.0322,-0.8774,0.4639,19.70,59.63,21.40
876,2178667629,0.0303,-0.8750,0.4663,17.20,58.90,20.49
877,2178672629,0.0244,-0.8770,0.4834,14.02,57.87,19.39
878,2178677628,0.0200,-0.8721,0.4824,11.46,56.95,18.54
879,2178682629,0.0059,-0.8701,0.4775,9.57,55.98,17.56
880,2178687627,0.0078,-0.8770,0.4717,9.15,54.82,16.83
881,2178692629,0.0029,-0.8799,0.4688,10.43,53.84,16.16
882,2178697628,-0.0112,-0.8789,0.4648,13.35,52.80,15.61
883,2178702629,-0.0386,-0.9067,0.4380,17.13,52.01,15.18
884,2178707628,-0.0044,-0.8940,0.4585,22.01,51.16,14.82
885,2178712627,-0.0024,-0.8794,0.4854,28.35,50.73,14.21
886,2178717627,-0.0142,-0.8818,0.4854,35.24,50.49,13.41
887,2178722627,-0.0181,-0.8877,0.4839,41.65,50.24,12.56
888,2178727627,-0.0171,-0.8916,0.4897,47.20,49.88,11.71
889,2178732627,-0.0181,-0.8940,0.5049,51.40,49.70,10.67
890,2178737627,-0.0283,-0.8945,0.5039,54.02,49.39,9.39
891,2178742627,-0.0400,-0.9004,0.5107,55.12,48.96,8.41
892,2178747627,-0.0415,-0.9009,0.5146,54.88,48.60,7.32
893,2178752627,-0.0532,-0.9033,0.5127,53.48,48.11,6.10
894,2178757633,-0.0566,-0.9097,0.5137,51.46,47.56,5.06
895,2178762630,-0.0557,-0.9062,0.5317,49.02,47.01,4.02
896,2178767632,-0.0684,-0.8989,0.5303,46.40,46.34,2.93
897,2178772630,-0.0757,-0.9053,0.5244,43.23,45.91,1.89
898,2178777629,-0.0688,-0.9043,0.5195,40.37,45.12,0.85
899,2178782629,-0.0659,-0.9028,0.5356,38.84,44.57,0.00
900,2178787629,-0.0674,-0.9058,0.5366,38.96,44.21,-0.85
901,2178792629,-0.0615,-0.9116,0.5352,40.73,43.96,-1.65
902,2178797628,-0.0479,-0.9106,0.5361,44.45,43.96,-2.50
903,2178802629,-0.0327,-0.9209,0.5347,49.70,43.90,-3.48
904,2178807629,-0.0308,-0.9312,0.5308,55.73,44.02,-4.39
905,2178812629,-0.0234,-0.9375,0.5332,61.52,44.21,-5.37
906,2178817628,-0.0225,-0.9331,0.5400,66.59,44.39,-6.46
907,2178822629,-0.0239,-0.9316,0.5503,70.00,44.70,-7.62
908,2178827629,-0.0205,-0.9355,0.5576,71.22,44.94,-8.84
909,2178832629,-0.0088,-0.9360,0.5713,70.06,45.24,-10.24
910,2178837628,-0.0054,-0.9375,0.5913,66.77,45.67,-11.71
911,2178842629,-0.0181,-0.9448,0.6021,61.10,46.16,-13.11
912,2178847629,-0.0190,-0.9375,0.5996,53.48,46.22,-14.33
913,2178852630,-0.0142,-0.9414,0.5942,45.12,46.16,-15.43
914,2178857628,-0.0156,-0.9409,0.5977,37.80,46.04,-16.34
915,2178862629,-0.0332,-0.9326,0.6055,32.44,46.04,-17.13
916,2178867629,-0.0391,-0.9263,0.6011,30.37,45.98,-17.68
917,2178872629,-0.0181,-0.9336,0.5889,32.26,45.98,-18.17
918,2178877628,-0.0054,-0.9409,0.5757,38.11,45.98,-18.48
919,2178882629,0.0098,-0.9390,0.5752,47.38,46.40,-18.72
920,2178887629,0.0283,-0.9292,0.5845,58.11,46.59,-19.21
921,2178892629,0.0308,-0.9404,0.5913,68.60,47.07,-19.76
922,2178897628,0.0469,-0.9365,0.6069,77.13,47.56,-20.55
923,2178902629,0.0469,-0.9224,0.6377,82.26,47.74,-21.65
924,2178907629,0.0371,-0.9204,0.6646,83.29,48.11,-22.93
925,2178912629,0.0220,-0.9185,0.6636,79.88,47.99,-24.33
926,2178917628,0.0112,-0.9170,0.6631,72.62,47.38,-25.61
927,2178922629,-0.0029,-0.9102,0.6660,63.41,46.46,-26.83
928,2178927627,-0.0200,-0.9043,0.6797,53.78,45.18,-27.99
929,2178932631,-0.0557,-0.8979,0.6938,45.30,43.96,-28.84
930,2178937628,-0.0703,-0.8872,0.6992,38.72,42.74,-29.57
931,2178942629,-0.0732,-0.8867,0.6963,34.45,41.34,-30.24
932,2178947629,-0.0835,-0.8818,0.6890,32.44,39.82,-30.61
933,2178952629,-0.0938,-0.8760,0.6738,32.62,38.29,-30.91
934,2178957628,-0.0820,-0.8760,0.6787,35.37,36.59,-31.16
935,2178962629,-0.0688,-0.8779,0.6934,41.10,35.37,-31.34
936,2178967630,-0.0522,-0.8613,0.7104,48.96,34.39,-31.59
937,2178972629,-0.0444,-0.8823,0.7026,57.44,33.84,-31.89
938,2178977628,-0.0073,-0.8804,0.7051,65.73,33.29,-32.32
939,2178982629,0.0044,-0.8926,0.7129,73.05,32.99,-33.05
940,2178987629,0.0122,-0.8882,0.7461,77.93,32.74,-33.84
941,2178992629,0.0239,-0.8862,0.7471,79.70,32.74,-34.82
942,2178997628,0.0420,-0.8833,0.7397,78.17,32.07,-35.91
943,2179002629,0.0479,-0.8818,0.7397,73.84,31.65,-37.01
944,2179007629,0.0376,-0.8784,0.7446,67.62,31.22,-38.11
945,2179012629,0.0156,-0.8799,0.7324,60.55,30.43,-39.09
946,2179017628,-0.0005,-0.8818,0.7319,53.84,29.63,-39.70
947,2179022629,-0.0278,-0.8789,0.7573,47.80,28.60,-40.18
948,2179027629,-0.0464,-0.8682,0.7632,42.50,27.87,-40.55
949,2179032629,-0.0435,-0.8677,0.7622,37.93,27.13,-40.73
950,2179037628,-0.0264,-0.8599,0.7456,34.76,26.28,-40.98
951,2179042629,-0.0259,-0.8535,0.7495,33.72,25.49,-41.04
952,2179047629,-0.0166,-0.8438,0.7485,35.24,25.06,-41.16
953,2179052629,0.0000,-0.8359,0.7490,39.57,24.70,-41.28
954,2179057630,0.0142,-0.8394,0.7397,46.40,24.39,-41.52
955,2179062629,0.0259,-0.8394,0.7573,55.18,24.27,-41.71
956,2179067627,0.0503,-0.8335,0.7588,64.27,24.63,-42.01
957,2179072629,0.0669,-0.8335,0.7725,72.32,24.63,-42.56
958,2179077629,0.0620,-0.8223,0.7925,77.74,24.63,-43.29
959,2179082629,0.0664,-0.8223,0.8032,80.00,24.51,-44.09
960,2179087628,0.0635,-0.8140,0.8086,79.02,24.21,-45.00
961,2179092630,0.0493,-0.8022,0.8203,75.49,23.60,-45.91
962,2179097629,0.0396,-0.7998,0.8281,70.61,22.99,-46.77
963,2179102629,0.0264,-0.7915,0.8477,65.30,22.38,-47.44
964,2179107628,0.0205,-0.7896,0.8608,60.43,21.77,-48.05
965,2179112629,0.0200,-0.7837,0.8530,55.79,21.28,-48.41
966,2179117671,0.0220,-0.7725,0.8442,51.65,20.67,-48.84
967,2179122630,0.0186,-0.7646,0.8452,48.41,19.76,-49.15
968,2179127628,0.0083,-0.7534,0.8330,46.52,18.78,-49.45
969,2179132629,-0.0015,-0.7554,0.8389,46.46,17.93,-49.70
970,2179137629,-0.0107,-0.7461,0.8433,48.23,17.20,-49.82
971,2179142629,-0.0225,-0.7422,0.8340,51.46,16.40,-50.06
972,2179147628,-0.0205,-0.7368,0.8364,55.55,15.61,-50.37
973,2179152629,-0.0010,-0.7397,0.8203,59.70,14.63,-50.73
974,2179157629,0.0229,-0.7329,0.8364,63.66,13.90,-51.28
975,2179162629,0.0449,-0.7324,0.8589,67.07,13.23,-52.20
976,2179167629,0.0659,-0.7246,0.8677,70.00,12.93,-52.99
977,2179172627,0.0913,-0.7163,0.8584,71.65,12.74,-54.21
978,2179177628,0.1113,-0.7109,0.8535,72.26,12.68,-55.55
979,2179182629,0.1147,-0.7070,0.8525,72.20,12.56,-56.71
980,2179187628,0.1172,-0.7080,0.8604,72.26,12.56,-58.05
981,2179192627,0.1069,-0.7056,0.8643,73.05,12.44,-59.02
982,2179197634,0.0908,-0.7124,0.8555,74.15,12.62,-59.94
983,2179202629,0.0889,-0.7148,0.8389,75.73,12.32,-60.79
984,2179207629,0.0806,-0.7153,0.8467,77.62,11.89,-61.52
985,2179212629,0.0732,-0.7148,0.8560,79.33,11.10,-62.56
986,2179217628,0.0693,-0.7090,0.8677,80.37,10.61,-63.66
987,2179222629,0.0586,-0.7007,0.8677,79.82,9.76,-65.06
988,2179227629,0.0679,-0.6978,0.8643,77.74,8.60,-66.71
989,2179232629,0.0771,-0.6836,0.8799,75.00,7.38,-68.54
990,2179237628,0.0728,-0.6655,0.9004,72.44,6.04,-70.30
991,2179242629,0.0532,-0.6528,0.9204,70.24,4.94,-72.26
992,2179247629,0.0591,-0.6440,0.9189,68.96,3.96,-73.96
993,2179252628,0.0840,-0.6304,0.9160,69.15,2.99,-75.49
994,2179257629,0.0933,-0.6187,0.9272,71.16,2.01,-77.01
995,2179262629,0.1064,-0.6099,0.9355,75.06,1.40,-78.35
996,2179267629,0.1328,-0.6011,0.9375,80.49,0.73,-79.76
997,2179272628,0.1621,-0.5962,0.9219,86.65,0.06,-80.98
998,2179277629,0.1865,-0.5889,0.9141,93.11,-0.73,-82.50
999,2179282627,0.2012,-0.5771,0.9126,99.39,-1.59,-83.96
1000,2179287627,0.2114,-0.5698,0.9307,104.63,-2.74,-85.73
1001,2179292630,0.2070,-0.5571,0.9209,108.48,-3.84,-87.68
1002,2179297629,0.2070,-0.5498,0.9214,110.43,-5.24,-89.88
1003,2179302628,0.2173,-0.5444,0.9355,111.28,-6.59,-92.20
1004,2179307629,0.2070,-0.5269,0.9590,111.77,-7.99,-94.63
1005,2179312627,0.1943,-0.5171,0.9976,111.95,-8.84,-96.95
1006,2179317906,0.1670,-0.5093,1.0083,110.79,-9.63,-99.21
1007,2179322654,0.1494,-0.5044,1.0000,108.11,-10.24,-100.55
1008,2179327629,0.1567,-0.4971,0.9946,104.15,-11.28,-101.46
1009,2179332629,0.1626,-0.4824,1.0039,100.91,-11.89,-102.13
1010,2179337628,0.1504,-0.4546,1.0391,97.01,-12.32,-102.68
1011,2179342629,0.1548,-0.4351,1.0430,95.30,-12.56,-103.11
1012,2179347629,0.1865,-0.4155,1.0479,93.84,-12.99,-103.60
1013,2179352629,0.2139,-0.3916,1.0386,93.72,-13.41,-104.09
1014,2179357628,0.2417,-0.3462,1.0273,94.45,-14.39,-105.06
1015,2179362630,0.2568,-0.3169,1.0200,96.77,-15.55,-106.22
1016,2179367629,0.2734,-0.3042,1.0308,100.98,-16.71,-107.56
1017,2179372630,0.2778,-0.2905,1.0278,106.77,-18.11,-108.96
1018,2179377627,0.2837,-0.2783,1.0220,113.35,-19.51,-110.43
1019,2179382630,0.3018,-0.2783,1.0273,120.85,-21.40,-111.65
1020,2179387629,0.2979,-0.2783,1.0449,128.60,-23.35,-112.74
1021,2179392629,0.2734,-0.2759,1.0791,137.07,-25.06,-113.48
1022,2179397627,0.2544,-0.2798,1.0991,143.35,-27.07,-113.84
1023,2179402627,0.2368,-0.2725,1.0991,146.65,-29.09,-113.60
1024,2179407629,0.2207,-0.2651,1.1099,147.07,-31.59,-113.05
1025,2179412627,0.2065,-0.2510,1.1411,145.18,-34.02,-112.26
1026,2179417629,0.1655,-0.2173,1.1675,141.83,-36.28,-111.52
1027,2179422629,0.1387,-0.1704,1.1865,137.44,-38.23,-111.22
1028,2179427629,0.1577,-0.1270,1.1797,132.07,-40.12,-111.28
1029,2179432629,0.2188,-0.0938,1.1660,127.50,-42.01,-111.83
1030,2179437627,0.2612,-0.0825,1.1562,123.72,-44.21,-112.74
1031,2179442629,0.2661,-0.0723,1.1646,121.28,-46.34,-113.54
1032,2179447628,0.2666,-0.0737,1.1543,120.79,-48.23,-114.21
1033,2179452629,0.2793,-0.0786,1.1353,122.13,-50.06,-114.39
1034,2179457629,0.2827,-0.0767,1.1333,125.00,-51.89,-114.02
1035,2179462629,0.2729,-0.0859,1.1206,129.09,-53.72,-113.17
1036,2179467630,0.2690,-0.0879,1.1064,132.68,-55.55,-112.01
1037,2179472629,0.2817,-0.0796,1.0967,136.95,-57.13,-110.49
1038,2179477846,0.2954,-0.0688,1.0933,140.98,-58.60,-108.54
1039,2179482629,0.2959,-0.0566,1.0962,144.02,-59.82,-106.83
1040,2179487629,0.3003,-0.0366,1.0884,145.55,-60.73,-105.37
1041,2179492629,0.2803,0.0259,1.0918,145.37,-61.52,-104.39
1042,2179497628,0.2891,0.0894,1.0830,143.66,-62.13,-104.51
1043,2179502630,0.3140,0.1270,1.0796,140.67,-62.68,-105.30
1044,2179507629,0.3340,0.1519,1.0752,137.38,-63.11,-106.59
1045,2179512629,0.3550,0.1421,1.0630,133.84,-63.54,-107.93
1046,2179517628,0.3726,0.1245,1.0464,130.98,-63.96,-108.90
1047,2179522629,0.3682,0.1030,1.0576,129.82,-64.45,-109.39
1048,2179527629,0.3486,0.0864,1.0601,131.16,-64.76,-109.02
1049,2179532629,0.3286,0.0747,1.0547,132.32,-64.82,-108.05
1050,2179537628,0.3184,0.0679,1.0415,134.27,-64.82,-106.52
1051,2179542629,0.3218,0.0679,1.0273,135.98,-64.63,-104.70
1052,2179547629,0.3467,0.0723,1.0117,137.44,-64.76,-102.50
1053,2179552629,0.3716,0.0952,1.0249,138.23,-64.51,-100.49
1054,2179557628,0.3794,0.1196,1.0137,137.74,-64.39,-98.78
1055,2179562629,0.3647,0.1650,0.9883,135.00,-64.63,-97.07
1056,2179567629,0.3418,0.2397,0.9785,129.82,-65.18,-95.98
1057,2179572629,0.3154,0.3369,0.9819,124.39,-65.79,-95.73
1058,2179577628,0.3101,0.4043,0.9868,119.21,-66.59,-96.40
1059,2179582628,0.3276,0.4355,0.9912,116.22,-67.38,-97.44
1060,2179587629,0.3403,0.4233,1.0093,116.16,-67.62,-98.41
1061,2179592629,0.3501,0.3950,1.0132,119.15,-67.87,-98.78
1062,2179597628,0.3774,0.3501,1.0112,124.57,-67.68,-98.35
1063,2179602629,0.3794,0.3091,1.0166,131.65,-67.26,-97.01
1064,2179607627,0.3677,0.2725,1.0288,139.33,-66.52,-95.00
1065,2179612629,0.3765,0.2476,1.0117,145.91,-65.49,-92.38
1066,2179617641,0.3955,0.2334,1.0005,150.30,-64.45,-89.63
1067,2179622627,0.4229,0.2461,0.9912,151.71,-63.66,-87.13
1068,2179627628,0.4360,0.2544,0.9678,149.94,-62.56,-84.82
1069,2179632629,0.4453,0.2690,0.9204,145.06,-62.26,-82.87
1070,2179637628,0.4673,0.3193,0.8979,137.38,-62.38,-81.46
1071,2179642629,0.4722,0.3809,0.8843,128.90,-62.56,-80.67
1072,2179647629,0.4360,0.4473,0.8657,118.96,-63.17,-80.49
1073,2179652627,0.3975,0.5195,0.8535,110.18,-63.66,-81.16
1074,2179657627,0.3867,0.5811,0.8516,103.72,-64.09,-82.20
1075,2179662627,0.4155,0.6162,0.8613,100.85,-64.51,-83.66
1076,2179667629,0.4233,0.6177,0.8730,102.26,-64.57,-84.76
1077,2179672629,0.4292,0.5947,0.8804,107.50,-64.39,-85.30
1078,2179677629,0.4292,0.5444,0.9038,116.16,-63.90,-84.70
1079,2179682627,0.4224,0.5098,0.9463,127.13,-62.93,-82.93
1080,2179687629,0.4312,0.4888,0.9668,138.66,-61.16,-80.49
1081,2179692628,0.4595,0.4653,0.9600,149.02,-59.27,-77.56
1082,2179697629,0.4717,0.4507,0.9307,156.16,-57.26,-74.39
1083,2179702627,0.4775,0.4443,0.8970,158.96,-55.55,-71.34
1084,2179707627,0.4849,0.4546,0.8716,157.26,-54.21,-68.29
1085,2179712629,0.5059,0.4868,0.8579,151.89,-53.17,-65.98
1086,2179717629,0.5142,0.5249,0.8345,143.35,-52.38,-64.15
1087,2179722628,0.5049,0.5488,0.7905,131.95,-51.89,-62.99
1088,2179727630,0.4902,0.5811,0.7627,120.67,-51.71,-62.07
1089,2179732627,0.4795,0.6230,0.7422,109.09,-51.46,-61.65
1090,2179737629,0.4883,0.6553,0.7368,99.63,-51.40,-61.77
1091,2179742628,0.4932,0.6841,0.7261,93.48,-50.91,-62.38
1092,2179747629,0.5005,0.7056,0.7314,91.22,-50.18,-63.23
1093,2179752627,0.4927,0.7192,0.7417,92.68,-49.27,-64.45
1094,2179757629,0.5034,0.7192,0.7490,97.50,-47.93,-65.55
1095,2179762628,0.5327,0.7061,0.7520,105.24,-46.59,-66.59
1096,2179767629,0.5415,0.6895,0.7686,114.82,-45.18,-67.26
1097,2179772627,0.5405,0.6758,0.7739,125.43,-43.60,-67.62
1098,2179777629,0.5371,0.6714,0.7842,134.88,-42.50,-67.74
1099,2179782629,0.5508,0.6934,0.8149,143.05,-41.46,-67.74
1100,2179787629,0.5303,0.6929,0.8032,148.35,-40.24,-67.50
1101,2179792629,0.4834,0.6865,0.7764,149.57,-39.57,-66.65
1102,2179797629,0.4609,0.7046,0.7617,146.40,-39.33,-65.37
1103,2179802628,0.4673,0.7275,0.7559,140.12,-39.45,-63.84
1104,2179807629,0.4702,0.7441,0.7539,132.07,-39.45,-62.56
1105,2179812627,0.4561,0.7588,0.7397,122.56,-39.51,-61.16
1106,2179817629,0.4487,0.7690,0.7241,113.29,-39.21,-59.82
1107,2179822628,0.4585,0.7764,0.6943,105.24,-39.09,-58.35
1108,2179827629,0.4717,0.7954,0.6855,98.66,-38.66,-57.20
1109,2179832628,0.4858,0.8032,0.6699,94.51,-38.11,-56.22
1110,2179837629,0.4966,0.8105,0.6606,92.56,-37.20,-55.67
1111,2179842628,0.4971,0.8120,0.6426,92.50,-36.28,-55.30
1112,2179847629,0.5234,0.8135,0.6270,94.21,-35.18,-55.18
1113,2179852629,0.5415,0.8228,0.6211,97.13,-34.21,-55.30
1114,2179857629,0.5430,0.8247,0.6128,100.67,-33.17,-55.67
1115,2179862628,0.5488,0.8496,0.5986,104.70,-32.13,-56.10
1116,2179867629,0.5566,0.8828,0.6025,108.48,-31.46,-56.95
1117,2179872627,0.5439,0.8901,0.5776,111.65,-30.79,-57.62
1118,2179877818,0.5215,0.8955,0.5669,113.84,-30.43,-57.99
1119,2179882629,0.5137,0.9053,0.5620,115.06,-30.00,-57.93
1120,2179887629,0.5132,0.9224,0.5640,115.98,-29.51,-57.93
1121,2179892629,0.5098,0.9292,0.5679,116.34,-28.66,-57.56
1122,2179897628,0.5073,0.9380,0.5640,116.65,-27.87,-57.13
1123,2179902629,0.5122,0.9458,0.5581,116.83,-27.13,-56.52
1124,2179907629,0.5073,0.9590,0.5669,116.83,-26.34,-55.85
1125,2179912629,0.4927,0.9785,0.5723,116.22,-25.61,-55.00
1126,2179917628,0.4810,0.9863,0.5625,115.00,-25.06,-54.21
1127,2179922629,0.4775,1.0000,0.5474,113.05,-24.57,-53.35
1128,2179927627,0.4683,1.0098,0.5493,110.85,-24.45,-52.32
1129,2179932629,0.4551,1.0254,0.5435,108.96,-24.51,-51.34
1130,2179937629,0.4414,1.0308,0.5415,107.32,-24.45,-50.55
1131,2179942628,0.4302,1.0132,0.5215,106.22,-24.63,-49.39
1132,2179947629,0.4155,1.0000,0.5063,105.43,-25.00,-47.93
1133,2179952629,0.4023,0.9878,0.4834,105.61,-25.18,-46.40
1134,2179957629,0.3975,0.9863,0.4712,106.59,-25.12,-44.88
1135,2179962629,0.3828,0.9766,0.4546,108.11,-24.76,-43.54
1136,2179967629,0.3643,0.9604,0.4312,109.88,-24.15,-42.20
1137,2179972628,0.3579,0.9658,0.4072,111.34,-22.93,-41.10
1138,2179977627,0.3691,0.9619,0.3911,112.87,-21.65,-40.24
1139,2179982629,0.3750,0.9629,0.3730,113.60,-20.06,-39.76
1140,2179987629,0.3770,0.9648,0.3628,113.66,-17.99,-39.45
1141,2179992629,0.3853,0.9658,0.3599,112.68,-15.30,-39.33
1142,2179997628,0.3916,0.9717,0.3496,110.55,-12.44,-39.45
1143,2180002629,0.4058,0.9702,0.3511,107.13,-9.27,-39.57
1144,2180007629,0.4233,0.9673,0.3433,102.50,-5.91,-39.70
1145,2180012631,0.4258,0.9629,0.3301,96.89,-2.56,-39.76
1146,2180017628,0.4219,0.9634,0.3188,90.73,0.37,-39.82
1147,2180022629,0.4136,0.9609,0.3091,84.51,3.23,-39.63
1148,2180027629,0.3936,0.9585,0.3013,78.84,5.85,-39.51
1149,2180032627,0.3774,0.9575,0.2920,74.45,8.05,-39.15
1150,2180037628,0.3657,0.9639,0.2871,71.71,10.18,-38.78
1151,2180042629,0.3433,0.9619,0.2720,70.61,12.07,-38.41
1152,2180047628,0.3359,0.9634,0.2759,71.04,13.78,-37.99
1153,2180052627,0.3345,0.9800,0.2739,72.56,15.49,-37.56
1154,2180057629,0.3369,0.9858,0.2676,74.82,16.77,-37.07
1155,2180062627,0.3179,0.9878,0.2593,77.20,17.99,-36.16
1156,2180067629,0.3037,0.9961,0.2661,79.76,19.09,-35.24
1157,2180072629,0.3032,1.0098,0.2847,82.20,20.43,-34.15
1158,2180077627,0.3042,1.0103,0.2842,84.39,21.95,-33.11
1159,2180082629,0.3086,1.0132,0.2827,85.73,23.78,-31.95
1160,2180087627,0.3071,1.0176,0.2915,85.67,25.85,-30.79
1161,2180092629,0.3145,1.0283,0.2974,84.33,28.23,-29.76
1162,2180097629,0.3247,1.0312,0.3003,81.52,30.73,-28.78
1163,2180102628,0.3179,1.0356,0.2876,77.44,33.23,-27.80
1164,2180107627,0.3218,1.0347,0.2798,72.80,35.30,-26.77
1165,2180112899,0.3091,1.0376,0.2808,68.17,37.07,-25.55
1166,2180117629,0.2964,1.0439,0.2935,64.51,38.78,-24.57
1167,2180122629,0.2837,1.0449,0.3062,62.38,40.18,-23.41
1168,2180127629,0.2749,1.0425,0.3008,61.22,41.28,-22.20
1169,2180132627,0.2656,1.0435,0.3018,61.22,42.32,-20.98
1170,2180137989,0.2627,1.0498,0.3062,62.07,43.05,-19.76
1171,2180142629,0.2432,1.0571,0.3125,63.23,43.60,-18.66
1172,2180147629,0.2222,1.0620,0.3076,63.96,44.02,-17.44
1173,2180152629,0.2104,1.0771,0.3159,64.63,44.21,-16.16
1174,2180157628,0.2070,1.0850,0.3330,65.00,44.63,-15.00
1175,2180162629,0.2046,1.0850,0.3447,65.18,45.12,-13.84
1176,2180167629,0.2036,1.0884,0.3394,65.06,45.79,-12.74
1177,2180172629,0.2148,1.0854,0.3486,64.57,46.65,-11.65
1178,2180177628,0.2256,1.0767,0.3560,63.84,47.50,-10.79
1179,2180182630,0.2305,1.0654,0.3521,62.80,48.66,-9.88
1180,2180187629,0.2349,1.0518,0.3467,61.28,49.76,-9.21
1181,2180192628,0.2334,1.0503,0.3472,59.57,50.79,-8.60
1182,2180197630,0.2363,1.0396,0.3428,57.93,51.59,-8.17
1183,2180202628,0.2285,1.0352,0.3311,56.52,52.68,-7.74
1184,2180207629,0.2256,1.0269,0.3242,55.49,53.41,-7.50
1185,2180212628,0.2280,1.0098,0.3257,55.00,54.21,-7.07
1186,2180217629,0.2368,1.0059,0.3242,54.94,54.88,-6.52
1187,2180222629,0.2349,1.0068,0.3232,55.06,55.30,-6.10
1188,2180227629,0.2280,0.9961,0.3135,55.30,55.67,-5.61
1189,2180232629,0.2222,0.9995,0.3154,55.61,55.67,-5.12
1190,2180237629,0.2222,1.0029,0.3169,55.91,55.85,-4.63
1191,2180242630,0.2217,1.0015,0.3057,55.79,55.79,-4.21
1192,2180247629,0.2207,0.9961,0.2998,55.37,55.49,-3.78
1193,2180252629,0.2173,0.9980,0.2983,54.63,55.06,-3.54
1194,2180257628,0.2202,0.9932,0.2905,53.78,54.63,-3.35
1195,2180262629,0.2158,0.9951,0.2817,52.87,54.39,-3.35
1196,2180267629,0.2168,0.9902,0.2773,52.38,54.27,-3.48
1197,2180272629,0.2183,0.9912,0.2710,52.26,54.15,-3.72
1198,2180277628,0.2192,0.9873,0.2651,52.68,54.09,-4.15
1199,2180282629,0.2280,0.9814,0.2578,53.54,54.02,-4.57
1200,2180287630,0.2163,0.9834,0.2476,54.82,54.09,-4.94
1201,2180292629,0.2188,0.9824,0.2573,56.40,54.21,-5.37
1202,2180297627,0.2183,0.9707,0.2515,57.99,54.33,-5.67
1203,2180302629,0.2046,0.9683,0.2446,59.21,54.27,-5.79
1204,2180307627,0.1938,0.9707,0.2461,59.88,54.27,-5.91
1205,2180312627,0.1851,0.9741,0.2520,59.76,54.27,-6.10
1206,2180317629,0.1738,0.9849,0.2524,58.78,54.15,-6.16
1207,2180322630,0.1660,0.9927,0.2446,57.38,54.09,-6.46
1208,2180327628,0.1611,0.9922,0.2402,55.67,53.90,-6.71
1209,2180332629,0.1680,0.9976,0.2437,53.72,53.72,-7.13
1210,2180337629,0.1792,1.0034,0.2539,52.07,53.60,-7.44
1211,2180342629,0.1953,1.0034,0.2559,51.04,53.48,-7.80
1212,2180347628,0.1929,0.9961,0.2515,50.37,53.29,-8.17
1213,2180352629,0.1953,1.0024,0.2495,50.30,53.17,-8.35
1214,2180357629,0.1987,1.0015,0.2490,50.49,52.87,-8.66
1215,2180362629,0.1997,1.0039,0.2368,50.85,52.56,-9.09
1216,2180367628,0.1924,1.0029,0.2271,51.28,52.01,-9.45
1217,2180372630,0.1885,1.0049,0.2183,51.89,51.59,-9.94
1218,2180377629,0.1846,1.0088,0.1997,52.56,51.10,-10.43
1219,2180382629,0.1753,1.0107,0.1851,53.41,50.67,-11.04
1220,2180387629,0.1699,1.0249,0.1943,54.15,50.37,-11.71
1221,2180392629,0.1816,1.0254,0.1851,54.51,50.12,-12.32
1222,2180397627,0.1948,1.0283,0.1885,54.39,50.00,-12.93
1223,2180402629,0.2017,1.0361,0.1909,53.72,49.39,-13.29
1224,2180407629,0.2134,1.0439,0.1963,53.17,48.66,-13.48
1225,2180412627,0.2178,1.0503,0.2046,52.80,47.99,-13.54
1226,2180417629,0.2109,1.0518,0.2046,52.87,47.01,-13.41
1227,2180422629,0.2090,1.0610,0.2002,52.87,46.16,-13.23
1228,2180427629,0.2056,1.0640,0.1963,53.17,44.70,-12.99
1229,2180432629,0.2065,1.0693,0.1929,53.66,44.09,-12.74
1230,2180437629,0.2007,1.0679,0.1641,54.15,43.05,-12.50
1231,2180442629,0.1978,1.0659,0.1465,54.57,42.44,-12.50
1232,2180447628,0.2002,1.0620,0.1309,55.06,41.65,-12.50
1233,2180452629,0.2075,1.0527,0.1172,55.85,41.34,-12.56
1234,2180457629,0.2188,1.0479,0.1099,57.07,41.22,-12.80
1235,2180462629,0.2271,1.0317,0.0947,58.48,41.28,-12.99
1236,2180467628,0.2212,1.0220,0.0894,59.88,41.65,-13.17
1237,2180472629,0.2314,1.0171,0.0869,61.22,42.01,-13.41
1238,2180477629,0.2339,1.0171,0.0972,62.32,42.32,-13.66
1239,2180482629,0.2310,1.0103,0.0957,62.68,42.99,-13.78
1240,2180487628,0.2256,1.0132,0.0996,62.13,43.29,-13.78
1241,2180492630,0.2295,1.0220,0.1045,60.73,43.54,-13.60
1242,2180498093,0.2349,1.0361,0.1187,57.99,43.66,-13.29
1243,2180502629,0.2271,1.0396,0.1216,55.61,43.84,-12.87
1244,2180507629,0.2168,1.0371,0.1162,52.32,44.02,-12.07
1245,2180512629,0.2168,1.0454,0.1069,49.02,43.96,-10.98
1246,2180517628,0.2271,1.0542,0.1113,46.28,43.96,-9.82
1247,2180522629,0.2383,1.0557,0.1099,44.39,44.09,-8.78
1248,2180527629,0.2285,1.0566,0.0962,43.41,44.27,-7.44
1249,2180532629,0.2246,1.0615,0.0757,43.29,44.15,-6.28
1250,2180537628,0.2280,1.0581,0.0728,44.21,44.15,-5.43
1251,2180542629,0.2339,1.0571,0.0698,46.28,44.15,-4.63
1252,2180547629,0.2300,1.0513,0.0625,49.21,44.15,-4.02
1253,2180552629,0.2437,1.0459,0.0483,52.26,44.39,-3.66
1254,2180557628,0.2607,1.0410,0.0435,55.24,44.45,-3.48
1255,2180562629,0.2617,1.0488,0.0425,57.56,44.63,-3.60
1256,2180567629,0.2666,1.0376,0.0479,58.72,45.00,-3.66
1257,2180572629,0.2734,1.0376,0.0464,58.54,45.30,-3.72
1258,2180577628,0.2793,1.0332,0.0513,57.26,45.79,-3.78
1259,2180582629,0.2754,1.0317,0.0620,54.94,46.04,-3.72
1260,2180587629,0.2725,1.0273,0.0635,52.20,46.22,-3.23
1261,2180592630,0.2739,1.0396,0.0742,49.15,46.52,-2.80
1262,2180597782,0.2749,1.0405,0.0762,46.10,46.71,-2.13
1263,2180602630,0.2700,1.0420,0.0635,43.54,46.59,-1.52
1264,2180607629,0.2534,1.0439,0.0718,42.13,46.34,-0.85
1265,2180612628,0.2261,1.0430,0.0747,41.65,46.28,0.00
1266,2180617629,0.2124,1.0513,0.0640,42.13,45.91,0.73
1267,2180622627,0.2192,1.0547,0.0547,43.60,45.61,1.46
1268,2180627627,0.2222,1.0684,0.0454,45.85,45.00,1.95
1269,2180632629,0.2168,1.0732,0.0332,48.72,44.76,2.26
1270,2180637629,0.2300,1.0669,0.0303,51.77,44.39,2.50
1271,2180642628,0.2427,1.0576,0.0239,54.70,44.02,2.93
1272,2180647629,0.2495,1.0479,0.0093,57.26,43.60,3.17
1273,2180652628,0.2495,1.0347,0.0000,59.02,43.54,3.48
1274,2180657629,0.2661,1.0283,0.0181,60.06,43.48,3.72
1275,2180662628,0.2793,1.0112,0.0229,60.37,43.60,3.96
1276,2180667629,0.2847,1.0034,0.0166,59.39,43.78,4.21
1277,2180672627,0.2974,1.0034,0.0264,57.13,44.02,4.51
1278,2180677629,0.2993,1.0000,0.0283,53.60,44.02,4.88
1279,2180682628,0.2939,1.0024,0.0273,49.27,44.02,5.12
1280,2180687629,0.2769,1.0039,0.0215,44.45,43.96,5.43
1281,2180692627,0.2671,1.0049,0.0200,39.82,43.66,5.91
1282,2180697910,0.2490,1.0063,0.0029,36.10,43.48,6.59
1283,2180702629,0.2295,1.0068,-0.0073,33.35,42.99,7.07
1284,2180707629,0.2163,1.0049,-0.0186,32.13,42.74,7.62
1285,2180712629,0.2158,1.0059,-0.0176,32.80,42.38,8.23
1286,2180717628,0.2275,1.0049,-0.0117,35.49,42.07,8.66
1287,2180722629,0.2373,1.0068,-0.0098,39.39,41.77,9.02
1288,2180727629,0.2510,0.9927,-0.0156,43.96,41.34,9.09
1289,2180732629,0.2632,0.9839,-0.0151,48.54,40.85,9.27
1290,2180737628,0.2754,0.9731,-0.0122,52.56,40.30,9.33
1291,2180742629,0.2739,0.9634,-0.0186,55.73,39.76,9.27
1292,2180747629,0.2720,0.9487,-0.0190,57.56,39.27,9.02
1293,2180752629,0.2827,0.9434,-0.0181,57.68,38.96,8.72
1294,2180757628,0.2773,0.9287,-0.0254,56.46,38.60,8.41
1295,2180762629,0.2686,0.9224,-0.0308,53.84,38.23,8.23
1296,2180767629,0.2710,0.9243,-0.0283,50.24,38.11,7.99
1297,2180772629,0.2764,0.9214,-0.0225,45.98,37.99,8.05
1298,2180777629,0.2759,0.9199,-0.0317,41.52,37.99,8.17
1299,2180782629,0.2812,0.9136,-0.0352,36.95,37.87,8.54
1300,2180787629,0.2769,0.9106,-0.0400,33.11,37.80,9.02
1301,2180792629,0.2769,0.9155,-0.0474,30.37,37.80,9.45
1302,2180797629,0.2856,0.9102,-0.0503,29.21,37.80,9.94
1303,2180802629,0.2847,0.9087,-0.0640,29.45,37.99,10.12
1304,2180807627,0.2920,0.9102,-0.0757,30.67,37.99,9.94
1305,2180812679,0.3042,0.9058,-0.0737,32.50,38.05,9.70
1306,2180817629,0.3188,0.9009,-0.0840,35.00,38.23,9.09
1307,2180822629,0.3271,0.9028,-0.0840,37.50,38.29,8.29
1308,2180827628,0.3325,0.9019,-0.0840,39.76,38.23,7.32
1309,2180832629,0.3276,0.8970,-0.0825,41.22,38.48,6.40
1310,2180837629,0.3130,0.8833,-0.0801,41.71,38.66,5.49
1311,2180842629,0.2979,0.8804,-0.0845,41.22,38.54,4.76
1312,2180847628,0.2886,0.8667,-0.0757,40.00,38.54,4.27
1313,2180852629,0.2788,0.8521,-0.0732,38.41,38.66,3.96
1314,2180857629,0.2725,0.8457,-0.0713,36.71,38.54,3.96
1315,2180862629,0.2803,0.8379,-0.0605,35.18,38.48,3.96
1316,2180867628,0.2764,0.8257,-0.0469,33.78,38.23,4.09
1317,2180872629,0.2773,0.8179,-0.0596,32.50,38.05,4.09
1318,2180877629,0.2832,0.8115,-0.0566,30.91,37.50,4.33
1319,2180882629,0.2993,0.8164,-0.0405,29.57,36.95,4.21
1320,2180887628,0.3076,0.8257,-0.0483,28.05,36.59,3.96
1321,2180892629,0.3164,0.8237,-0.0601,26.40,36.04,3.48
1322,2180897629,0.3145,0.8345,-0.0747,24.76,35.18,2.87
1323,2180902629,0.3242,0.8486,-0.0757,23.90,34.39,2.01
1324,2180907628,0.3213,0.8545,-0.0859,23.66,33.78,0.98
1325,2180912629,0.3091,0.8481,-0.1128,23.84,33.17,0.00
1326,2180917629,0.3037,0.8496,-0.1167,24.57,32.68,-0.79
1327,2180922629,0.3101,0.8569,-0.1216,25.73,31.89,-1.65
1328,2180927628,0.3047,0.8452,-0.1240,27.32,31.52,-2.50
1329,2180932629,0.2925,0.8330,-0.1245,28.84,31.22,-3.05
1330,2180937629,0.3013,0.8262,-0.1274,30.30,30.61,-3.72
1331,2180942629,0.3110,0.8120,-0.1211,31.22,30.12,-4.45
1332,2180947628,0.3110,0.7993,-0.1187,31.77,30.00,-5.18
1333,2180952629,0.2954,0.7910,-0.1187,31.71,29.63,-5.79
1334,2180957629,0.2974,0.7900,-0.1118,31.04,29.63,-6.65
1335,2180962629,0.3052,0.7910,-0.1074,29.76,29.51,-7.38
1336,2180967628,0.2871,0.7866,-0.1167,27.32,29.39,-8.29
1337,2180972629,0.2837,0.7925,-0.1348,24.39,28.84,-8.96
1338,2180977629,0.2861,0.7993,-0.1426,21.10,28.41,-9.88
1339,2180982629,0.2729,0.8047,-0.1587,18.48,27.80,-10.73
1340,2180987628,0.2739,0.8057,-0.1641,16.65,27.56,-11.59
1341,2180992629,0.2803,0.8042,-0.1641,16.10,27.32,-12.50
1342,2180997627,0.2832,0.8042,-0.1670,16.40,27.20,-13.41
1343,2181003120,0.2749,0.7988,-0.1860,17.68,27.07,-14.33
1344,2181007629,0.2773,0.7983,-0.2026,18.72,27.07,-15.06
1345,2181012629,0.2764,0.7993,-0.2017,20.43,27.13,-15.85
1346,2181017629,0.2676,0.7979,-0.1973,22.32,27.50,-16.83
1347,2181022627,0.2593,0.8042,-0.2056,23.84,27.99,-17.74
1348,2181027629,0.2607,0.8130,-0.2065,25.06,28.29,-18.78
1349,2181032628,0.2568,0.8169,-0.2144,25.73,28.78,-19.94
1350,2181037629,0.2437,0.8188,-0.2192,25.79,29.15,-20.98
1351,2181042627,0.2227,0.8228,-0.2354,24.94,29.63,-21.89
1352,2181047629,0.2266,0.8247,-0.2427,23.90,30.06,-22.87
1353,2181052628,0.2217,0.8208,-0.2573,22.99,30.30,-23.41
1354,2181057641,0.2012,0.8071,-0.2734,22.50,30.55,-23.84
1355,2181062628,0.1855,0.7935,-0.2759,22.62,30.67,-24.21
1356,2181067630,0.2007,0.7856,-0.2803,23.54,31.10,-24.45
1357,2181072628,0.2168,0.7837,-0.2725,24.88,31.95,-24.63
1358,2181077629,0.2202,0.7803,-0.2749,25.91,32.74,-24.70
1359,2181082627,0.2231,0.7915,-0.2832,25.91,33.54,-25.06
1360,2181087627,0.2456,0.8472,-0.2314,23.60,34.27,-25.37
1361,2181092629,0.3960,2.3608,1.7300,-115.06,-2.99,-16.22
1362,2181097629,0.5205,2.6958,-1.1250,-117.20,15.06,-18.48
1363,2181102629,0.2456,1.9814,-1.6348,-87.32,14.63,-20.91
1364,2181107627,0.4956,-0.0522,-0.9756,-85.61,-6.65,-17.26
1365,2181112988,0.4302,0.3740,0.5747,-81.04,-4.45,-15.18
1366,2181117629,0.3501,-0.1650,0.5186,-69.27,2.62,-10.06
1367,2181122629,0.3594,1.1553,-0.9614,-50.06,-7.68,-10.91
1368,2181127631,0.2837,2.0840,0.4297,-33.54,-12.80,-13.29
1369,2181132627,0.2876,1.8789,0.6558,-12.20,-9.51,-16.04
1370,2181137629,0.3628,1.0278,-0.4375,1.40,-15.24,-16.59
1371,2181142628,0.3672,0.4238,-0.2451,12.56,-21.71,-16.34
1372,2181147629,0.3203,0.3682,0.5269,24.57,-20.85,-16.95
1373,2181152627,0.3608,0.6162,-0.0112,32.44,-21.71,-18.17
1374,2181157629,0.3921,1.0312,-0.4766,36.28,-26.22,-20.06
1375,2181162628,0.3491,1.3760,0.0410,41.83,-26.22,-22.93
1376,2181167627,0.3452,1.2896,-0.0181,44.70,-24.88,-25.43
1377,2181172627,0.3711,0.8584,-0.5586,44.21,-26.10,-26.89
1378,2181177629,0.3530,0.6118,-0.2144,41.59,-26.28,-28.05
1379,2181182627,0.3311,0.5518,-0.1074,39.21,-23.48,-29.39
1380,2181187628,0.3428,0.6987,-0.4331,33.48,-23.05,-30.55
1381,2181192627,0.3130,0.9785,-0.3481,28.54,-22.56,-31.95
1382,2181197630,0.2935,1.1743,-0.2280,21.40,-20.91,-33.05
1383,2181202629,0.2949,1.0742,-0.3071,14.33,-19.82,-33.41
1384,2181207629,0.2769,0.7075,-0.5073,8.35,-19.88,-32.87
1385,2181212628,0.1987,0.7158,0.0723,3.66,-16.95,-32.07
1386,2181218077,0.1807,0.6978,-0.1929,-0.18,-13.66,-31.95
1387,2181222629,0.1821,1.0190,-0.3677,-2.74,-14.88,-31.16
1388,2181227629,0.1460,1.1992,-0.1509,-1.40,-12.13,-31.28
1389,2181232629,0.1768,1.1074,-0.3232,-0.55,-11.10,-30.73
1390,2181237629,0.1846,1.1011,-0.3750,1.52,-10.85,-29.57
1391,2181242627,0.1709,0.9229,-0.0850,3.72,-9.45,-28.54
1392,2181247628,0.1973,0.9014,-0.2710,8.35,-9.02,-27.26
1393,2181252629,0.1890,0.9688,-0.3105,13.60,-9.63,-26.16
1394,2181257628,0.1895,1.0640,-0.1289,19.51,-9.02,-25.43
1395,2181262629,0.1816,1.0537,-0.2300,26.52,-7.99,-24.82
1396,2181267628,0.1938,1.0083,-0.2681,33.60,-7.68,-24.57
1397,2181272629,0.1650,0.9268,-0.3398,39.94,-6.71,-24.45
1398,2181277629,0.1318,0.8740,-0.4209,44.94,-4.94,-24.63
1399,2181283073,0.1309,0.9644,-0.3770,48.54,-2.44,-25.30
1400,2181287629,0.0703,0.9380,-0.3486,50.67,-0.73,-25.79
1401,2181292629,0.0146,0.9463,-0.5200,55.12,3.66,-27.26
1402,2181297629,-0.0122,0.9043,-0.7148,58.48,7.20,-28.35
1403,2181302629,-0.0610,0.8530,-0.7461,62.20,12.87,-29.94
1404,2181307629,0.0405,0.6846,-0.9131,64.57,18.72,-31.40
1405,2181312627,0.0083,0.5776,-0.9590,70.61,28.72,-34.33
1406,2181317629,0.1821,0.4370,-1.2305,78.29,42.87,-39.21
1407,2181322629,0.0283,0.4565,-1.3599,86.34,60.55,-46.10
1408,2181327629,0.0176,0.5029,-1.5254,87.74,74.63,-52.62
1409,2181332629,-0.0132,0.5425,-1.1577,84.33,84.70,-57.20
1410,2181337629,-0.0977,0.6655,-0.9697,73.54,99.21,-63.29
1411,2181342627,-0.1113,0.7192,-1.1484,64.15,106.83,-66.52
1412,2181347629,-0.1548,0.8042,-1.0107,48.72,116.16,-69.88
1413,2181352628,-0.1880,0.8721,-0.6689,38.60,121.77,-70.98
1414,2181357629,-0.2065,0.9565,-0.5156,25.67,128.05,-70.98
1415,2181362627,-0.2158,0.9951,-0.6138,18.96,130.61,-69.94
1416,2181367630,-0.2368,1.0537,-0.4575,11.95,132.74,-66.71
1417,2181372628,-0.2422,1.0840,-0.2354,8.90,133.23,-62.87
1418,2181377629,-0.2153,1.1157,-0.1768,7.99,132.44,-58.05
1419,2181382627,-0.1904,1.1460,-0.1836,9.09,129.63,-52.80
1420,2181387629,-0.1743,1.1646,-0.0723,11.59,125.98,-47.20
1421,2181392628,-0.1436,1.1821,0.0557,15.12,122.50,-41.40
1422,2181397629,-0.1157,1.1958,0.0361,18.96,118.23,-35.73
1423,2181402627,-0.0728,1.2168,0.0210,22.62,113.35,-30.37
1424,2181407629,-0.0244,1.2490,0.1055,25.67,108.54,-25.49
1425,2181412628,-0.0024,1.2710,0.1318,27.99,104.02,-21.22
1426,2181417629,0.0020,1.2915,0.0483,28.84,99.27,-17.68
1427,2181422627,0.0088,1.2954,-0.0117,28.23,93.54,-14.51
1428,2181427629,0.0303,1.2969,-0.0103,27.26,88.60,-12.13
1429,2181432628,0.0664,1.2808,-0.0239,26.52,84.45,-10.43
1430,2181437629,0.1001,1.2349,-0.0791,26.59,79.70,-9.15
1431,2181442627,0.1152,1.1895,-0.1191,27.26,76.22,-8.17
1432,2181447629,0.1387,1.1377,-0.1499,28.54,73.29,-7.68
1433,2181452628,0.1567,1.0913,-0.2080,30.30,70.73,-7.50
1434,2181457629,0.1685,1.0591,-0.2441,32.87,68.96,-7.74
1435,2181462627,0.1909,1.0269,-0.2344,36.04,68.11,-8.23
1436,2181467630,0.2114,0.9810,-0.2520,39.27,68.05,-8.96
1437,2181472637,0.2251,0.9497,-0.3066,41.77,68.35,-9.63
1438,2181477629,0.2329,0.9326,-0.3394,43.29,68.60,-10.43
1439,2181482627,0.2183,0.9341,-0.3418,43.66,69.45,-11.52
1440,2181487629,0.1812,0.9214,-0.3540,42.80,70.55,-12.62
1441,2181492628,0.1636,0.9038,-0.3848,40.98,71.89,-13.90
1442,2181497629,0.1743,0.8999,-0.3955,38.60,73.23,-15.24
1443,2181502627,0.1841,0.8936,-0.4058,36.04,74.82,-16.83
1444,2181507629,0.1875,0.8901,-0.4229,33.48,76.34,-18.54
1445,2181512628,0.1968,0.8955,-0.4272,31.59,77.99,-20.43
1446,2181517631,0.2202,0.8940,-0.4199,30.61,79.63,-22.38
1447,2181522627,0.2451,0.8989,-0.4043,30.61,81.22,-24.21
1448,2181527629,0.2476,0.9038,-0.3965,31.40,82.56,-25.91
1449,2181532628,0.2397,0.9082,-0.3872,32.80,83.48,-27.13
1450,2181537629,0.2266,0.9199,-0.3613,34.63,85.55,-28.11
1451,2181542627,0.2139,0.9438,-0.3350,36.28,85.98,-28.72
1452,2181547629,0.1880,0.9678,-0.3228,37.32,85.85,-29.09
1453,2181552628,0.1582,0.9839,-0.3301,37.38,86.28,-29.15
1454,2181557629,0.1343,0.9985,-0.3340,36.59,87.26,-28.84
1455,2181562627,0.1270,1.0024,-0.3232,35.24,87.99,-28.41
1456,2181567629,0.1323,1.0063,-0.3076,34.21,88.84,-27.56
1457,2181572628,0.1465,1.0059,-0.2935,33.66,89.51,-26.52
1458,2181577629,0.1616,1.0054,-0.2705,33.84,90.30,-25.06
1459,2181582627,0.1909,0.9995,-0.2671,34.39,91.16,-23.41
1460,2181587629,0.2026,0.9907,-0.2495,35.00,91.83,-21.52
1461,2181592628,0.2026,0.9775,-0.2363,35.37,92.44,-19.51
1462,2181597629,0.2095,0.9912,-0.2231,35.00,93.05,-17.26
1463,2181602627,0.2090,1.0122,-0.2100,33.60,93.41,-15.30
1464,2181607629,0.2056,1.0332,-0.2085,31.10,93.41,-13.48
1465,2181612628,0.1953,1.0513,-0.2080,27.80,93.48,-11.95
1466,2181617629,0.1948,1.0708,-0.2085,24.02,93.11,-10.55
1467,2181622627,0.1885,1.0830,-0.2227,20.61,92.68,-9.45
1468,2181627665,0.1660,1.0952,-0.2383,18.17,92.20,-8.35
1469,2181632628,0.1333,1.0947,-0.2637,17.38,91.65,-7.62
1470,2181637629,0.1226,1.0947,-0.2837,18.41,91.10,-6.89
1471,2181642627,0.1509,1.0747,-0.2837,21.52,90.98,-6.28
1472,2181647627,0.2061,1.0273,-0.2700,26.34,91.28,-5.43
1473,2181652629,0.2207,0.9980,-0.2729,32.26,92.13,-4.39
1474,2181657629,0.2222,0.9844,-0.2700,37.74,93.11,-2.99
1475,2181662629,0.2314,0.9839,-0.2627,41.59,94.09,-1.71
1476,2181667628,0.2505,0.9834,-0.2578,43.23,95.30,-0.43
1477,2181672629,0.2651,0.9751,-0.2402,42.32,96.52,0.79
1478,2181677782,0.2827,0.9673,-0.2236,39.27,97.38,2.26
1479,2181682629,0.2905,0.9761,-0.2114,34.82,97.93,3.72
1480,2181687628,0.2915,0.9790,-0.1997,29.09,98.35,5.18
1481,2181692629,0.2729,0.9863,-0.2002,22.99,98.29,6.65
1482,2181697629,0.2559,1.0000,-0.2114,17.56,97.87,7.80
1483,2181702629,0.2305,1.0132,-0.2070,13.41,97.13,8.90
1484,2181707628,0.2026,1.0132,-0.2168,11.04,96.10,9.82
1485,2181712629,0.1641,1.0200,-0.2417,10.79,94.94,10.55
1486,2181717627,0.1309,1.0366,-0.2666,12.62,93.66,11.04
1487,2181722629,0.1069,1.0381,-0.2969,16.40,92.80,11.16
1488,2181727629,0.1118,1.0156,-0.3174,21.59,92.50,11.16
1489,2181732627,0.1704,0.9692,-0.3335,27.80,92.74,11.22
1490,2181737629,0.2627,0.9312,-0.3252,34.63,93.96,11.34
1491,2181742628,0.3574,0.8848,-0.3091,41.28,96.16,11.65
1492,2181747627,0.4453,0.8530,-0.2837,46.59,98.78,12.20
1493,2181752629,0.4893,0.8379,-0.2622,49.82,101.89,12.56
1494,2181757629,0.4790,0.8398,-0.2456,49.82,104.82,13.05
1495,2181762628,0.4385,0.8608,-0.2441,46.52,107.13,13.41
1496,2181767631,0.3770,0.8911,-0.2285,40.24,108.66,13.78
1497,2181772627,0.3091,0.9331,-0.2100,32.26,109.33,14.15
1498,2181777628,0.2583,0.9712,-0.1963,23.54,109.21,14.57
1499,2181782665,0.2026,0.9951,-0.2046,15.79,108.29,15.06
1500,2181787629,0.1646,1.0195,-0.2134,10.12,106.59,15.73
1501,2181792628,0.1304,1.0405,-0.2178,7.26,104.39,16.71
1502,2181797629,0.0957,1.0479,-0.2231,7.68,102.44,17.80
1503,2181802627,0.0962,1.0400,-0.2480,11.46,100.73,19.15
1504,2181807629,0.1289,1.0166,-0.2656,18.23,99.63,20.61
1505,2181812628,0.1895,0.9863,-0.2798,26.95,99.15,22.01
1506,2181817629,0.2856,0.9385,-0.2773,36.65,99.82,23.60
1507,2181822627,0.4038,0.8813,-0.2544,46.10,101.59,25.06
1508,2181827629,0.4878,0.8467,-0.2319,53.72,104.27,26.59
1509,2181832628,0.5430,0.8252,-0.2134,58.17,107.38,27.99
1510,2181837629,0.5708,0.8271,-0.1782,58.35,110.49,29.02
1511,2181842627,0.5386,0.8398,-0.1543,54.15,113.11,29.88
1512,2181847629,0.4688,0.8672,-0.1509,45.91,114.70,30.55
1513,2181852628,0.3926,0.9067,-0.1396,34.88,115.12,31.22
1514,2181857629,0.3359,0.9512,-0.1240,23.11,114.39,31.52
1515,2181862627,0.2944,0.9814,-0.1230,12.62,112.62,31.77
1516,2181867629,0.2681,1.0015,-0.1279,5.00,110.18,31.95
1517,2181872628,0.2661,1.0024,-0.1313,1.52,107.20,32.13
1518,2181877629,0.2700,1.0000,-0.1392,2.44,104.02,32.26
1519,2181882628,0.2666,0.9961,-0.1416,7.80,101.10,32.68
1520,2181887629,0.2690,0.9971,-0.1533,16.65,98.66,33.11
1521,2181892628,0.2749,0.9902,-0.1660,27.56,96.71,33.54
1522,2181897629,0.3096,0.9702,-0.1729,39.45,95.43,34.02
1523,2181902629,0.3672,0.9448,-0.1821,50.91,94.76,34.51
1524,2181907629,0.4043,0.9209,-0.1841,60.43,94.63,35.18
1525,2181912628,0.4385,0.9058,-0.1821,66.83,95.24,35.85
1526,2181917629,0.4707,0.8862,-0.1802,69.63,96.34,36.34
1527,2181922627,0.5049,0.8696,-0.1758,68.66,97.32,36.77
1528,2181927629,0.5327,0.8657,-0.1572,64.76,98.29,36.65
1529,2181932629,0.5249,0.8765,-0.1353,58.78,99.27,36.46
1530,2181937629,0.4917,0.8940,-0.1377,51.22,99.82,35.91
1531,2181942627,0.4556,0.9097,-0.1436,42.87,99.33,35.24
1532,2181947957,0.4233,0.9346,-0.1416,35.37,98.23,34.51
1533,2181952628,0.3965,0.9546,-0.1362,29.82,96.40,33.78
1534,2181957629,0.3809,0.9624,-0.1348,27.13,94.15,33.29
1535,2181962629,0.3730,0.9614,-0.1450,27.50,91.71,33.11
1536,2181967627,0.3711,0.9561,-0.1465,31.10,89.51,33.11
1537,2181972631,0.3789,0.9517,-0.1562,37.50,87.38,33.78
1538,2181977629,0.4033,0.9463,-0.1616,46.04,85.49,34.57
1539,2181982629,0.4229,0.9370,-0.1851,55.30,85.43,35.55
1540,2181987628,0.4565,0.9238,-0.1992,64.39,85.55,36.40
1541,2181992629,0.5034,0.9097,-0.2090,72.20,85.73,37.32
1542,2181997629,0.5337,0.9058,-0.2207,77.80,85.85,37.93
1543,2182002629,0.5586,0.9102,-0.2158,80.61,86.52,38.54
1544,2182007628,0.5806,0.9062,-0.2266,80.55,88.29,38.78
1545,2182012629,0.5850,0.9165,-0.2305,77.74,89.76,39.02
1546,2182017627,0.5918,0.9155,-0.2202,72.93,91.04,39.39
1547,2182022629,0.6045,0.9194,-0.1987,67.07,91.95,39.94
1548,2182028234,0.6069,0.9282,-0.1865,60.49,92.80,41.10
1549,2182032629,0.5913,0.9365,-0.1875,56.83,93.23,42.07
1550,2182037629,0.5728,0.9482,-0.1704,53.78,93.66,43.60
1551,2182042629,0.5713,0.9590,-0.1680,52.50,93.84,45.18
1552,2182047628,0.5654,0.9692,-0.1724,52.93,94.09,47.07
1553,2182052629,0.5620,0.9727,-0.1777,54.57,93.90,49.02
1554,2182057848,0.5625,0.9839,-0.1860,57.26,94.15,51.22
1555,2182062629,0.5645,1.0024,-0.1870,60.37,94.39,53.48
1556,2182067629,0.5771,1.0073,-0.1855,63.66,94.88,55.85
1557,2182072631,0.5972,1.0068,-0.1841,66.95,95.85,58.41
1558,2182077629,0.6128,1.0122,-0.1865,69.57,97.20,61.10
1559,2182082628,0.6294,1.0107,-0.1733,71.40,98.60,63.90
1560,2182087629,0.6499,0.9985,-0.1738,72.56,100.30,66.95
1561,2182092627,0.6733,0.9844,-0.1421,73.11,102.32,70.55
1562,2182097629,0.6738,0.9897,-0.1196,73.17,104.21,74.39
1563,2182102628,0.6616,0.9780,-0.1025,72.38,106.28,78.41
1564,2182107631,0.6396,0.9766,-0.0938,70.79,107.93,83.05
1565,2182112629,0.6182,0.9795,-0.0996,68.11,109.51,86.77
1566,2182117629,0.6006,0.9893,-0.1016,64.76,110.61,91.77
1567,2182122629,0.5781,0.9922,-0.1030,61.16,111.46,96.22
1568,2182127627,0.5791,0.9878,-0.1011,57.87,112.07,100.67
1569,2182132629,0.5972,0.9941,-0.0962,55.43,112.68,105.06
1570,2182137823,0.6245,0.9839,-0.0977,54.45,113.54,109.21
1571,2182142629,0.6597,0.9688,-0.0991,54.88,114.76,113.29
1572,2182147629,0.6816,0.9570,-0.0908,57.01,115.91,117.01
1573,2182152629,0.7002,0.9492,-0.0728,60.24,117.32,120.73
1574,2182157629,0.7158,0.9346,-0.0532,63.78,118.90,124.33
1575,2182162690,0.7227,0.9199,-0.0396,67.20,120.37,127.99
1576,2182167631,0.7378,0.8979,-0.0151,70.06,121.71,131.65
1577,2182172628,0.7295,0.8789,0.0259,72.38,122.74,135.30
1578,2182177628,0.7065,0.8608,0.0483,73.72,123.54,139.02
1579,2182182629,0.6802,0.8447,0.0737,74.15,124.09,142.80
1580,2182187629,0.6553,0.8325,0.0962,73.35,124.21,146.40
1581,2182192628,0.6440,0.8140,0.1172,71.71,123.90,149.94
1582,2182197630,0.6445,0.7905,0.1377,69.94,123.29,153.48
1583,2182202630,0.6396,0.7690,0.1494,68.29,122.38,156.83
1584,2182207629,0.6333,0.7480,0.1665,66.77,121.46,160.00
1585,2182212629,0.6357,0.7241,0.1860,65.79,120.49,163.17
1586,2182217628,0.6484,0.7051,0.2041,65.37,119.57,166.16
1587,2182222629,0.6680,0.6885,0.2236,65.37,118.66,168.84
1588,2182227629,0.6797,0.6641,0.2397,65.49,117.80,171.59
1589,2182232630,0.6934,0.6406,0.2476,65.79,116.71,174.09
1590,2182237627,0.7007,0.6211,0.2754,66.16,115.55,176.40
1591,2182242677,0.7051,0.6001,0.2866,66.65,114.39,178.48
1592,2182247629,0.6973,0.5728,0.2969,67.32,112.93,180.30
1593,2182252629,0.6865,0.5444,0.3062,67.99,111.34,182.01
1594,2182257629,0.6807,0.5146,0.3193,68.96,109.63,183.60
1595,2182262627,0.6860,0.4844,0.3257,70.37,107.62,184.82
1596,2182267629,0.6914,0.4595,0.3384,72.20,105.67,185.61
1597,2182272628,0.7051,0.4395,0.3511,74.39,103.35,186.04
1598,2182277629,0.7178,0.4165,0.3721,76.77,101.22,186.22
1599,2182282627,0.7197,0.3853,0.3970,79.15,98.96,186.10
1600,2182287630,0.7192,0.3569,0.4126,81.04,96.65,185.98
1601,2182292628,0.7261,0.3291,0.4243,82.32,94.39,185.79
1602,2182297629,0.7344,0.3110,0.4385,83.23,92.01,185.55
1603,2182302627,0.7388,0.2856,0.4468,83.72,89.45,185.24
1604,2182307629,0.7241,0.2554,0.4531,83.84,86.83,185.12
1605,2182312628,0.6997,0.2285,0.4673,83.41,85.12,185.06
1606,2182317627,0.6890,0.2021,0.4692,82.13,83.78,185.12
1607,2182322629,0.7026,0.1841,0.4751,80.18,81.34,185.12
1608,2182327627,0.7236,0.1660,0.4893,77.99,79.09,185.00
1609,2182332627,0.7319,0.1382,0.4980,75.43,76.89,184.82
1610,2182337627,0.7329,0.1201,0.5107,72.87,74.70,184.63
1611,2182342627,0.7505,0.0996,0.5039,70.43,72.32,184.27
1612,2182347627,0.7686,0.0830,0.5029,68.41,69.76,183.60
1613,2182352627,0.7598,0.0674,0.5103,67.01,67.20,182.87
1614,2182357632,0.7529,0.0327,0.5161,66.77,64.45,182.20
1615,2182362628,0.7510,0.0063,0.5176,67.56,61.89,181.28
1616,2182367627,0.7480,-0.0083,0.5098,69.21,59.39,180.30
1617,2182372629,0.7417,-0.0386,0.4878,71.04,56.83,179.45
1618,2182377629,0.7231,-0.0547,0.4829,72.80,54.33,178.54
1619,2182382629,0.7329,-0.0664,0.4844,74.63,52.26,177.80
1620,2182387629,0.7388,-0.0913,0.4648,76.04,50.43,176.95
1621,2182392628,0.7563,-0.1089,0.4546,77.01,48.66,176.16
1622,2182397629,0.7690,-0.1260,0.4248,77.50,46.83,175.06
1623,2182402629,0.8047,-0.1396,0.4219,77.80,45.06,173.90
1624,2182407629,0.8247,-0.1548,0.4185,78.05,43.66,172.38
1625,2182412628,0.8252,-0.1665,0.4224,78.05,42.56,170.85
1626,2182417975,0.8359,-0.1685,0.4287,77.99,41.65,169.21
1627,2182422629,0.8599,-0.1680,0.4326,77.50,40.79,167.20
1628,2182427628,0.8560,-0.1812,0.4287,76.71,39.70,165.37
1629,2182432629,0.8281,-0.1953,0.4360,75.55,38.60,163.41
1630,2182437629,0.8022,-0.2017,0.4492,74.39,37.38,161.89
1631,2182442629,0.7778,-0.2178,0.4624,73.78,36.04,160.55
1632,2182447628,0.7573,-0.2358,0.4663,73.48,34.63,159.57
1633,2182452629,0.7354,-0.2510,0.4604,73.84,33.17,158.84
1634,2182457627,0.7188,-0.2637,0.4614,74.63,31.95,158.35
1635,2182462629,0.7163,-0.2754,0.4697,75.55,30.55,157.93
1636,2182467628,0.7324,-0.2739,0.4619,76.10,29.70,157.56
1637,2182472629,0.7446,-0.2778,0.4536,76.40,28.60,157.07
1638,2182477629,0.7520,-0.2798,0.4536,76.10,27.74,156.52
1639,2182482629,0.7607,-0.2808,0.4629,75.24,27.01,156.16
1640,2182487627,0.7598,-0.2827,0.4604,73.60,26.16,155.67
1641,2182492630,0.7573,-0.2852,0.4585,71.52,25.43,155.37
1642,2182497628,0.7671,-0.2886,0.4648,69.39,24.63,154.94
1643,2182502629,0.7681,-0.2930,0.4829,67.68,23.96,154.45
1644,2182507627,0.7632,-0.2983,0.4834,66.34,23.35,153.96
1645,2182512629,0.7480,-0.3081,0.4907,65.73,22.68,153.66
1646,2182517627,0.7344,-0.3306,0.4927,65.79,21.65,153.54
1647,2182522627,0.7119,-0.3433,0.4888,66.52,20.79,153.54
1648,2182527629,0.6890,-0.3599,0.4883,67.68,19.88,153.54
1649,2182532627,0.6772,-0.3657,0.4937,69.27,19.15,153.72
1650,2182537628,0.6729,-0.3809,0.4951,70.55,18.54,153.78
1651,2182542629,0.6631,-0.3950,0.4868,71.10,17.80,154.09
1652,2182547629,0.6572,-0.4077,0.4731,70.55,17.32,154.39
1653,2182552627,0.6680,-0.4121,0.4590,69.15,16.71,154.70
1654,2182557692,0.6816,-0.4180,0.4526,67.44,16.22,154.82
1655,2182562629,0.6968,-0.4185,0.4614,65.55,16.04,154.82
1656,2182567629,0.6992,-0.4297,0.4482,63.54,16.10,154.82
1657,2182572628,0.6958,-0.4438,0.4380,61.16,16.22,155.00
1658,2182577629,0.6924,-0.4585,0.4277,59.02,16.34,155.18
1659,2182582627,0.7095,-0.4648,0.4434,57.80,16.59,155.49
1660,2182587629,0.7173,-0.4780,0.4541,57.68,17.01,155.73
1661,2182592629,0.7168,-0.4883,0.4585,58.35,17.38,155.79
1662,2182597628,0.7148,-0.4966,0.4629,59.39,17.87,155.73
1663,2182602629,0.6919,-0.5171,0.4688,60.61,18.29,155.98
1664,2182607628,0.6680,-0.5322,0.4761,61.65,18.66,156.10
1665,2182612629,0.6548,-0.5405,0.4736,62.38,19.02,156.22
1666,2182617629,0.6426,-0.5527,0.4648,62.62,19.33,156.34
1667,2182622628,0.6245,-0.5610,0.4756,62.74,19.63,156.28
1668,2182627627,0.6006,-0.5718,0.4731,62.62,19.82,156.22
1669,2182632629,0.5820,-0.5718,0.4775,62.56,20.24,156.16
1670,2182637628,0.5854,-0.5630,0.4976,62.74,20.85,155.79
1671,2182642630,0.5815,-0.5513,0.5225,62.93,21.59,155.49
1672,2182647627,0.5635,-0.5503,0.5322,62.38,22.13,155.06
1673,2182652627,0.5400,-0.5459,0.5356,60.91,22.32,154.94
1674,2182657631,0.5161,-0.5317,0.5474,58.41,22.13,155.00
1675,2182662630,0.5029,-0.5391,0.5518,55.43,21.65,155.24
1676,2182667627,0.4932,-0.5371,0.5591,52.44,21.04,155.67
1677,2182672627,0.4854,-0.5454,0.5522,49.82,19.82,156.22
1678,2182677627,0.4766,-0.5527,0.5581,48.41,18.72,156.77
1679,2182682627,0.4819,-0.5625,0.5547,48.54,17.20,157.26
1680,2182687627,0.4878,-0.5728,0.5444,50.49,15.98,157.68
1681,2182692627,0.5059,-0.5918,0.5435,54.63,14.88,157.80
1682,2182697628,0.5122,-0.6030,0.5410,60.30,14.39,157.93
1683,2182702627,0.4941,-0.6313,0.5303,66.89,13.96,157.74
1684,2182707627,0.4907,-0.6309,0.5317,73.84,13.96,157.50
1685,2182712627,0.4883,-0.6226,0.5718,80.12,14.70,157.07
1686,2182717627,0.4502,-0.6294,0.5820,84.51,15.79,156.52
1687,2182722629,0.3916,-0.6367,0.5854,85.24,16.65,156.46
1688,2182727630,0.3408,-0.6440,0.5908,82.26,17.20,156.65
1689,2182732627,0.3105,-0.6387,0.6118,76.52,17.56,157.20
1690,2182737628,0.2817,-0.6440,0.6255,69.45,17.99,157.93
1691,2182742631,0.2485,-0.6479,0.6274,61.95,17.99,158.84
1692,2182747627,0.2251,-0.6592,0.6309,54.70,17.87,160.00
1693,2182752627,0.2227,-0.6631,0.6353,48.84,17.56,161.28
1694,2182757627,0.2266,-0.6738,0.6450,45.12,17.26,162.50
1695,2182762629,0.2280,-0.6802,0.6523,43.48,17.13,163.60
1696,2182767629,0.2305,-0.6880,0.6616,42.99,17.13,164.45
1697,2182772627,0.2437,-0.7002,0.6611,43.23,17.01,165.18
1698,2182777627,0.2642,-0.7061,0.6553,43.90,16.95,165.61
1699,2182782627,0.2793,-0.7070,0.6562,44.82,16.77,165.61
1700,2182787627,0.2886,-0.7153,0.6548,45.91,16.83,165.43
1701,2182792629,0.2964,-0.7256,0.6470,47.07,16.83,164.94
1702,2182797628,0.2847,-0.7363,0.6416,48.29,17.07,164.39
1703,2182802628,0.2666,-0.7495,0.6294,49.57,17.32,163.78
1704,2182807627,0.2368,-0.7632,0.6309,50.85,17.87,163.11
1705,2182812627,0.2153,-0.7549,0.6587,51.95,18.35,162.26
1706,2182817627,0.1860,-0.7627,0.6636,52.56,19.15,161.52
1707,2182822633,0.1528,-0.7632,0.6729,51.89,19.51,160.85
1708,2182827869,0.1040,-0.7612,0.6870,49.33,19.76,160.18
1709,2182832629,0.0850,-0.7661,0.6968,46.83,19.57,159.88
1710,2182837628,0.0615,-0.7632,0.7314,43.48,19.45,159.33
1711,2182842629,0.0469,-0.7642,0.7520,39.94,18.90,158.60
1712,2182847628,0.0469,-0.7681,0.7524,36.65,18.17,157.99
1713,2182852629,0.0493,-0.7754,0.7627,33.90,17.20,157.01
1714,2182857629,0.0586,-0.7783,0.7627,32.13,16.10,156.10
1715,2182862627,0.0654,-0.7759,0.7871,31.40,14.88,154.88
1716,2182867629,0.0620,-0.7734,0.7939,31.65,13.72,153.60
1717,2182872629,0.0479,-0.7847,0.7798,32.32,12.38,152.32
1718,2182877629,0.0376,-0.7856,0.7744,33.41,11.10,151.16
1719,2182882627,0.0366,-0.7759,0.7822,34.88,9.57,149.88
1720,2182887629,0.0205,-0.7729,0.7925,36.83,8.29,148.66
1721,2182892629,-0.0083,-0.7734,0.7930,38.78,7.13,147.56
1722,2182897628,-0.0356,-0.7720,0.7910,40.43,6.04,146.59
1723,2182902629,-0.0625,-0.7798,0.7871,41.52,4.76,145.91
1724,2182907627,-0.0981,-0.7847,0.7739,42.44,3.90,145.18
1725,2182912629,-0.1299,-0.7969,0.7803,42.87,2.99,144.63
1726,2182917628,-0.1489,-0.8140,0.7754,42.62,2.32,144.27
1727,2182922629,-0.1660,-0.8232,0.7681,41.89,1.71,144.09
1728,2182927629,-0.1738,-0.8232,0.7651,40.73,1.52,143.54
1729,2182932629,-0.1675,-0.8296,0.7754,39.51,1.65,142.87
1730,2182937628,-0.1660,-0.8384,0.7793,37.99,1.89,141.89
1731,2182942630,-0.1616,-0.8389,0.7744,36.04,2.01,140.91
1732,2182947628,-0.1528,-0.8379,0.7852,34.15,2.50,139.63
1733,2182952628,-0.1494,-0.8359,0.7847,32.50,3.05,138.29
1734,2182957627,-0.1582,-0.8384,0.7827,31.16,3.84,136.65
1735,2182962627,-0.1689,-0.8496,0.7832,30.43,4.51,135.24
1736,2182967627,-0.1904,-0.8564,0.7827,30.06,5.18,133.84
1737,2182972741,-0.2197,-0.8560,0.7637,29.70,6.28,132.20
1738,2182977630,-0.2285,-0.8530,0.7607,29.33,7.01,131.22
1739,2182982628,-0.2417,-0.8472,0.7549,29.09,7.87,129.88
1740,2182987740,-0.2603,-0.8379,0.7686,28.72,9.02,128.23
1741,2182993046,-0.2705,-0.8350,0.7583,27.80,10.12,126.83
1742,2182997629,-0.2754,-0.8301,0.7461,26.40,10.79,125.85
1743,2183002628,-0.2690,-0.8218,0.7412,23.60,11.34,124.51
1744,2183007628,-0.2749,-0.8003,0.7437,19.70,11.89,123.17
1745,2183012629,-0.2827,-0.7842,0.7451,17.01,12.32,122.26
1746,2183017627,-0.2871,-0.7793,0.7368,13.54,12.68,121.28
1747,2183022627,-0.2852,-0.7627,0.7295,10.67,13.11,120.37
1748,2183027629,-0.2871,-0.7466,0.7222,8.60,13.29,119.57
1749,2183032627,-0.2847,-0.7246,0.7285,8.23,13.78,118.72
1750,2183037627,-0.2842,-0.7119,0.7358,9.15,14.27,117.87
1751,2183042628,-0.2993,-0.6987,0.7378,11.34,14.94,117.20
1752,2183047627,-0.3281,-0.6929,0.7280,14.33,15.55,116.65
1753,2183052627,-0.3472,-0.6875,0.7251,17.50,16.04,116.34
1754,2183057627,-0.3550,-0.6724,0.7349,20.49,16.83,116.16
1755,2183062627,-0.3633,-0.6606,0.7407,22.56,17.68,115.85
1756,2183067627,-0.3706,-0.6523,0.7378,23.05,18.60,115.61
1757,2183072627,-0.3799,-0.6431,0.7285,21.34,19.21,115.43
1758,2183077627,-0.3779,-0.6304,0.7280,18.05,19.94,115.18
1759,2183082627,-0.3838,-0.6260,0.7212,13.54,20.61,114.82
1760,2183087627,-0.3872,-0.6211,0.7178,8.78,21.28,114.51
1761,2183092627,-0.3818,-0.6050,0.7075,4.33,22.26,114.09
1762,2183097627,-0.3828,-0.6011,0.7041,0.55,23.11,113.66
1763,2183102627,-0.3896,-0.5913,0.6982,-2.50,24.15,113.23
1764,2183107627,-0.3906,-0.5815,0.6787,-4.39,25.24,112.80
1765,2183112627,-0.3862,-0.5723,0.6675,-4.76,26.46,112.44
1766,2183117627,-0.3887,-0.5703,0.6548,-3.66,27.80,112.01
1767,2183122627,-0.4097,-0.5542,0.6548,-1.04,29.15,111.65
1768,2183127627,-0.4219,-0.5244,0.6826,1.77,30.79,111.16
1769,2183132627,-0.4473,-0.5122,0.6890,4.02,32.56,110.79
1770,2183137848,-0.4951,-0.4966,0.6851,4.21,33.90,110.67
1771,2183142629,-0.5122,-0.4990,0.6772,2.62,34.70,110.98
1772,2183147632,-0.5200,-0.4883,0.6714,-0.98,35.37,111.59
1773,2183152628,-0.5361,-0.4746,0.6777,-3.35,35.43,112.07
1774,2183157629,-0.5547,-0.4692,0.6836,-7.13,35.61,112.93
1775,2183162628,-0.5674,-0.4609,0.6714,-9.63,35.67,113.48
1776,2183167631,-0.5903,-0.4526,0.6616,-13.11,35.55,114.51
1777,2183172629,-0.5957,-0.4492,0.6348,-15.37,35.43,115.24
1778,2183177629,-0.5884,-0.4624,0.6128,-16.16,35.06,115.98
1779,2183182632,-0.6021,-0.4717,0.5942,-15.18,34.82,116.71
1780,2183187629,-0.6196,-0.4829,0.5742,-12.32,34.76,117.13
1781,2183192628,-0.6099,-0.5000,0.5522,-7.74,34.82,117.20
1782,2183197633,-0.5977,-0.5083,0.5347,-1.71,35.24,116.95
1783,2183202627,-0.5889,-0.5225,0.5298,5.24,35.85,116.22
1784,2183207627,-0.6084,-0.5327,0.5059,11.52,36.83,115.12
1785,2183212628,-0.6162,-0.5483,0.5098,16.34,37.68,113.54
1786,2183217629,-0.6055,-0.5552,0.5063,19.27,38.78,111.77
1787,2183222629,-0.6108,-0.5469,0.5186,19.88,39.76,109.57
1788,2183227629,-0.6338,-0.5596,0.5161,18.41,40.85,107.26
1789,2183232628,-0.6377,-0.5566,0.5386,15.12,41.77,104.82
1790,2183237629,-0.6421,-0.5474,0.5581,10.55,42.74,102.26
1791,2183242629,-0.6621,-0.5376,0.5620,4.70,43.72,99.82
1792,2183247629,-0.6909,-0.5381,0.5742,-2.38,44.39,97.62
1793,2183252628,-0.7158,-0.5371,0.5723,-10.49,44.70,95.73
1794,2183257630,-0.7329,-0.5361,0.5845,-18.72,45.00,94.33
1795,2183263175,-0.7480,-0.5269,0.5767,-26.77,44.82,92.99
1796,2183267629,-0.7793,-0.5176,0.5747,-33.84,44.39,91.89
1797,2183272629,-0.8140,-0.5244,0.5674,-39.76,44.02,90.91
1798,2183277630,-0.8481,-0.5264,0.5610,-44.39,43.35,90.43
1799,2183282627,-0.8701,-0.5352,0.5581,-47.56,42.32,89.88
1800,2183287630,-0.8911,-0.5352,0.5508,-49.57,41.46,89.39
1801,2183292629,-0.9297,-0.5298,0.5479,-50.73,40.06,88.96
1802,2183297629,-0.9551,-0.5391,0.5415,-51.52,38.72,88.66
1803,2183302628,-0.9561,-0.5566,0.5166,-51.34,36.95,88.72
1804,2183307630,-0.9473,-0.5679,0.4976,-50.06,35.24,87.32
1805,2183312628,-0.9590,-0.5732,0.4805,-47.44,33.35,86.59
1806,2183317627,-0.9541,-0.5869,0.4717,-43.35,31.52,86.16
1807,2183322631,-0.9365,-0.6133,0.4775,-37.68,29.88,84.45
1808,2183327631,-0.9263,-0.6304,0.4673,-30.98,28.17,82.80
1809,2183332628,-0.9224,-0.6499,0.4653,-24.39,26.40,80.91
1810,2183337628,-0.8950,-0.6523,0.4727,-18.54,24.82,78.60
1811,2183343148,-0.8628,-0.6602,0.4785,-14.39,22.93,76.04
1812,2183347629,-0.8667,-0.6665,0.4839,-12.56,21.16,73.23
1813,2183352628,-0.8789,-0.6714,0.4941,-13.41,19.33,70.49
1814,2183357629,-0.8779,-0.6719,0.4854,-16.77,16.95,67.68
1815,2183362628,-0.8633,-0.6777,0.4990,-21.22,14.76,64.63
1816,2183367629,-0.8604,-0.6753,0.5088,-26.22,12.44,61.65
1817,2183372630,-0.8662,-0.6670,0.5142,-31.22,10.55,58.35
1818,2183377629,-0.8721,-0.6636,0.5142,-35.67,8.54,55.18
1819,2183382628,-0.8745,-0.6665,0.5137,-39.51,6.77,52.01
1820,2183387630,-0.8979,-0.6475,0.5259,-42.80,5.18,48.90
1821,2183392628,-0.9097,-0.6372,0.5171,-45.24,3.48,45.79
1822,2183397629,-0.9028,-0.6431,0.5166,-46.16,2.13,42.87
1823,2183402628,-0.9028,-0.6553,0.5112,-45.06,0.79,40.18
1824,2183407629,-0.9126,-0.6616,0.5132,-41.65,-0.61,37.74
1825,2183412628,-0.9097,-0.6729,0.5078,-36.16,-1.77,35.61
1826,2183417628,-0.8965,-0.6836,0.5049,-28.54,-2.99,33.48
1827,2183422629,-0.8853,-0.6880,0.5049,-19.39,-3.96,31.40
1828,2183427630,-0.8789,-0.6934,0.5059,-9.27,-4.76,29.45
1829,2183432629,-0.8804,-0.6938,0.5088,1.04,-5.79,27.26
1830,2183437628,-0.8662,-0.7031,0.5039,11.16,-6.65,25.06
1831,2183442631,-0.8574,-0.6924,0.5229,20.37,-7.32,22.87
1832,2183447628,-0.8560,-0.6875,0.5493,28.11,-7.87,20.43
1833,2183452629,-0.8687,-0.6904,0.5693,33.17,-8.17,18.17
1834,2183457628,-0.8779,-0.7012,0.5747,34.94,-8.60,16.04
1835,2183462631,-0.8706,-0.6978,0.5845,33.35,-9.09,14.02
1836,2183467628,-0.8462,-0.7031,0.5811,28.66,-9.63,12.13
1837,2183472629,-0.8398,-0.6919,0.5913,21.46,-10.49,10.24
1838,2183477628,-0.8501,-0.6821,0.5996,12.74,-11.16,8.54
1839,2183482629,-0.8545,-0.6729,0.5981,3.05,-11.95,6.77
1840,2183487629,-0.8496,-0.6665,0.5977,-6.52,-12.74,5.30
1841,2183492627,-0.8311,-0.6631,0.6035,-14.94,-13.54,3.78
1842,2183497629,-0.8340,-0.6616,0.5942,-21.77,-14.21,2.56
1843,2183502629,-0.8447,-0.6475,0.5840,-26.52,-14.70,1.52
1844,2183507629,-0.8398,-0.6460,0.5732,-28.78,-15.37,0.67
1845,2183512628,-0.8213,-0.6445,0.5601,-28.35,-15.91,-0.18
1846,2183517629,-0.8042,-0.6348,0.5522,-25.55,-16.22,-0.79
1847,2183522649,-0.8193,-0.6177,0.5518,-20.61,-16.52,-1.59
1848,2183527629,-0.8340,-0.6016,0.5430,-14.51,-16.89,-2.44
1849,2183532873,-0.8237,-0.6050,0.5288,-7.50,-17.13,-3.17
1850,2183537629,-0.8179,-0.6030,0.5283,-0.12,-17.62,-3.72
1851,2183542629,-0.8169,-0.5918,0.5283,7.20,-17.87,-4.39
1852,2183547629,-0.8149,-0.5972,0.5078,13.60,-18.23,-5.00
1853,2183552629,-0.8008,-0.6001,0.5044,18.96,-18.78,-5.55
1854,2183557628,-0.7935,-0.5933,0.5034,22.99,-19.51,-6.16
1855,2183562629,-0.7856,-0.5903,0.5020,25.55,-20.18,-6.71
1856,2183567629,-0.7866,-0.5947,0.5068,26.34,-21.10,-7.07
1857,2183572629,-0.7793,-0.5957,0.4941,25.37,-21.95,-7.44
1858,2183577629,-0.7720,-0.5933,0.4946,22.44,-23.29,-7.56
1859,2183582629,-0.7715,-0.5894,0.4844,17.93,-24.45,-7.50
1860,2183587628,-0.7793,-0.5889,0.4771,12.13,-25.73,-7.26
1861,2183592629,-0.7764,-0.5835,0.4746,5.79,-27.07,-6.77
1862,2183597629,-0.7754,-0.5806,0.4790,-0.49,-28.29,-6.28
1863,2183602629,-0.7754,-0.5767,0.4668,-6.04,-29.33,-5.73
1864,2183607629,-0.7710,-0.5703,0.4624,-10.12,-30.43,-5.12
1865,2183612628,-0.7598,-0.5723,0.4619,-12.13,-30.98,-4.57
1866,2183617629,-0.7578,-0.5591,0.4585,-11.77,-31.34,-4.09
1867,2183623157,-0.7520,-0.5601,0.4575,-8.48,-31.22,-3.66
1868,2183627629,-0.7412,-0.5586,0.4570,-2.87,-30.85,-3.54
1869,2183632629,-0.7246,-0.5659,0.4624,4.82,-30.24,-3.35
1870,2183637629,-0.7158,-0.5557,0.4614,14.21,-29.15,-3.54
1871,2183642628,-0.7129,-0.5576,0.4614,23.96,-27.87,-3.78
1872,2183647630,-0.7007,-0.5674,0.4658,33.41,-26.52,-4.27
1873,2183652629,-0.6729,-0.5796,0.4697,41.65,-25.06,-4.76
1874,2183657630,-0.6616,-0.5732,0.4761,48.05,-23.72,-5.30
1875,2183662627,-0.6528,-0.5654,0.4868,52.13,-22.01,-6.04
1876,2183667628,-0.6328,-0.5664,0.4946,53.41,-20.61,-6.95
1877,2183672630,-0.6250,-0.5732,0.5132,52.07,-19.21,-7.68
1878,2183677629,-0.6270,-0.5718,0.5151,47.87,-17.99,-8.35
1879,2183682629,-0.6299,-0.5654,0.5269,41.16,-16.83,-8.96
1880,2183687629,-0.6265,-0.5557,0.5488,32.50,-15.61,-9.33
1881,2183692629,-0.6333,-0.5508,0.5547,22.93,-14.39,-9.51
1882,2183697628,-0.6562,-0.5430,0.5630,12.56,-13.23,-9.63
1883,2183702629,-0.6807,-0.5327,0.5645,2.62,-11.89,-9.70
1884,2183707628,-0.6890,-0.5278,0.5654,-6.28,-10.61,-9.45
1885,2183712629,-0.6987,-0.5205,0.5586,-13.23,-9.09,-9.09
1886,2183717628,-0.7031,-0.5127,0.5518,-18.17,-7.62,-8.66
1887,2183722630,-0.7051,-0.5156,0.5518,-20.55,-6.10,-8.05
1888,2183727694,-0.7007,-0.5190,0.5493,-20.12,-4.45,-7.32
1889,2183732629,-0.7012,-0.5142,0.5444,-17.38,-2.74,-6.46
1890,2183737628,-0.6982,-0.5156,0.5288,-13.17,-1.22,-5.61
1891,2183742629,-0.6929,-0.5215,0.5195,-7.99,0.24,-4.63
1892,2183747628,-0.6758,-0.5244,0.5176,-2.26,1.65,-3.66
1893,2183752629,-0.6763,-0.5205,0.5093,3.48,2.99,-2.80
1894,2183757628,-0.6738,-0.5249,0.5078,8.41,4.21,-1.95
1895,2183762629,-0.6577,-0.5283,0.5156,12.32,5.43,-1.16
1896,2183767629,-0.6533,-0.5293,0.5049,14.76,6.46,-0.49
1897,2183772629,-0.6543,-0.5283,0.5078,15.55,7.26,0.18
1898,2183777628,-0.6445,-0.5273,0.5107,14.76,8.11,0.73
1899,2183782629,-0.6416,-0.5337,0.5161,12.80,8.78,1.22
1900,2183787628,-0.6382,-0.5312,0.5342,10.00,9.57,1.65
1901,2183792629,-0.6523,-0.5332,0.5439,6.34,10.37,2.20
1902,2183797629,-0.6636,-0.5381,0.5444,2.32,10.98,2.62
1903,2183802629,-0.6621,-0.5356,0.5552,-1.95,11.65,3.05
1904,2183807628,-0.6709,-0.5332,0.5527,-6.16,12.32,3.54
1905,2183812629,-0.6821,-0.5288,0.5459,-10.06,12.80,3.96
1906,2183817628,-0.6890,-0.5259,0.5479,-13.11,13.29,4.33
1907,2183822629,-0.6973,-0.5264,0.5464,-14.88,13.72,4.63
1908,2183827628,-0.7031,-0.5234,0.5503,-15.18,14.09,4.94
1909,2183832629,-0.6982,-0.5215,0.5371,-14.09,14.51,5.18
1910,2183837628,-0.6904,-0.5220,0.5361,-11.71,14.76,5.43
1911,2183842629,-0.6855,-0.5264,0.5317,-8.05,15.30,5.79
1912,2183847628,-0.6816,-0.5273,0.5352,-3.66,15.49,6.16
1913,2183852627,-0.6787,-0.5308,0.5356,0.98,15.73,6.46
1914,2183857629,-0.6685,-0.5391,0.5356,5.55,15.91,6.83
1915,2183862629,-0.6553,-0.5376,0.5454,9.39,16.10,7.20
1916,2183867628,-0.6489,-0.5347,0.5430,12.80,16.10,7.56
1917,2183872629,-0.6387,-0.5376,0.5503,15.49,16.04,7.68
1918,2183877629,-0.6431,-0.5498,0.5586,17.38,16.04,7.87
1919,2183882629,-0.6465,-0.5464,0.5679,18.78,15.91,8.05
1920,2183887628,-0.6558,-0.5474,0.5718,19.33,15.91,8.11
1921,2183892629,-0.6646,-0.5498,0.5859,19.09,15.85,8.05
1922,2183897628,-0.6704,-0.5562,0.5981,18.23,15.85,7.99
1923,2183902629,-0.6812,-0.5532,0.6035,16.46,15.79,7.93
1924,2183907628,-0.6924,-0.5532,0.6191,13.72,15.73,7.80
1925,2183912629,-0.7080,-0.5527,0.6196,10.00,15.61,7.74
1926,2183917628,-0.7178,-0.5552,0.6250,5.55,15.37,7.74
1927,2183922629,-0.7158,-0.5518,0.6255,1.04,15.12,7.74
1928,2183927628,-0.7144,-0.5464,0.6279,-3.48,14.57,7.74
1929,2183932629,-0.7080,-0.5518,0.6226,-7.56,14.09,7.80
1930,2183937628,-0.6982,-0.5503,0.6230,-10.67,13.78,7.74
1931,2183942629,-0.6865,-0.5493,0.6265,-12.32,12.93,7.87
1932,2183947629,-0.6758,-0.5542,0.6309,-12.01,12.68,7.87
1933,2183952629,-0.6636,-0.5542,0.6226,-10.06,12.07,7.80
1934,2183957628,-0.6538,-0.5547,0.6318,-6.77,11.71,7.68
1935,2183962629,-0.6509,-0.5581,0.6255,-2.74,11.22,7.62
1936,2183967628,-0.6470,-0.5537,0.6279,1.34,10.61,7.50
1937,2183972629,-0.6567,-0.5479,0.6274,5.00,9.94,7.20
1938,2183977629,-0.6616,-0.5493,0.6260,8.17,9.27,6.95
1939,2183982628,-0.6689,-0.5474,0.6318,10.55,8.54,6.77
1940,2183987629,-0.6748,-0.5479,0.6265,12.44,7.68,6.46
1941,2183992629,-0.6865,-0.5454,0.6338,13.17,6.59,6.16
1942,2183997629,-0.6978,-0.5479,0.6460,13.11,5.61,5.98
1943,2184002630,-0.7109,-0.5415,0.6558,12.07,4.82,5.85
1944,2184007629,-0.7261,-0.5469,0.6636,10.00,3.54,5.98
1945,2184012629,-0.7246,-0.5493,0.6602,7.38,2.44,6.04
1946,2184017629,-0.7222,-0.5522,0.6724,4.27,1.28,6.28
1947,2184022628,-0.7266,-0.5557,0.6724,1.04,0.12,6.40
1948,2184027629,-0.7339,-0.5474,0.6709,-2.07,-1.10,6.77
1949,2184032629,-0.7236,-0.5474,0.6709,-4.82,-2.38,6.83
1950,2184037629,-0.7222,-0.5513,0.6768,-6.71,-3.54,6.89
1951,2184042628,-0.7178,-0.5444,0.6724,-7.68,-4.70,6.95
1952,2184047629,-0.7104,-0.5449,0.6709,-7.80,-5.79,7.07
1953,2184052629,-0.7070,-0.5464,0.6719,-7.13,-6.83,7.13
1954,2184057629,-0.6987,-0.5454,0.6611,-5.61,-8.05,7.20
1955,2184062628,-0.6851,-0.5503,0.6621,-3.60,-9.21,7.20
1956,2184067629,-0.6743,-0.5483,0.6631,-0.98,-10.24,7.38
1957,2184072632,-0.6768,-0.5449,0.6597,1.95,-11.40,7.50
1958,2184077710,-0.6763,-0.5371,0.6606,4.70,-12.38,7.56
1959,2184082628,-0.6733,-0.5361,0.6519,7.13,-13.48,7.44
1960,2184087629,-0.6724,-0.5391,0.6465,9.15,-14.70,7.44
1961,2184092629,-0.6729,-0.5371,0.6421,10.55,-15.67,7.32
1962,2184097628,-0.6665,-0.5332,0.6465,11.83,-16.71,7.13
1963,2184102627,-0.6724,-0.5288,0.6436,12.62,-17.87,6.77
1964,2184107631,-0.6714,-0.5347,0.6460,13.23,-18.84,6.59
1965,2184112629,-0.6807,-0.5342,0.6489,13.05,-19.57,6.40
1966,2184117628,-0.6992,-0.5327,0.6484,12.20,-20.49,6.34
1967,2184122631,-0.7139,-0.5220,0.6440,10.18,-21.28,6.28
1968,2184127628,-0.7192,-0.5244,0.6416,7.32,-22.01,6.28
1969,2184132630,-0.7212,-0.5176,0.6450,3.84,-22.93,6.40
1970,2184137628,-0.7183,-0.5181,0.6450,0.24,-23.72,6.77
1971,2184142629,-0.7163,-0.5166,0.6426,-2.80,-24.51,6.95
1972,2184147628,-0.7090,-0.5181,0.6367,-5.55,-25.12,7.26
1973,2184152629,-0.6987,-0.5137,0.6343,-7.26,-25.79,7.56
1974,2184157628,-0.6948,-0.5068,0.6353,-8.17,-26.10,7.87
1975,2184162629,-0.7012,-0.5039,0.6323,-7.87,-26.65,8.11
1976,2184167628,-0.7002,-0.5000,0.6187,-6.34,-26.95,8.35
1977,2184172629,-0.6934,-0.4971,0.6255,-3.84,-27.13,8.54
1978,2184177628,-0.6870,-0.5044,0.6235,-0.79,-27.01,8.66
1979,2184182629,-0.6890,-0.5015,0.6191,2.56,-27.13,9.02
1980,2184187628,-0.6895,-0.5063,0.6172,5.67,-27.01,9.15
1981,2184192629,-0.6797,-0.5132,0.6143,8.66,-26.95,9.39
1982,2184197752,-0.6758,-0.5239,0.6128,11.28,-26.77,9.70
1983,2184202629,-0.6714,-0.5308,0.6104,13.17,-26.65,10.06
1984,2184207627,-0.6738,-0.5322,0.6094,14.09,-26.65,10.37
1985,2184212722,-0.6714,-0.5361,0.6040,14.15,-26.46,10.61
1986,2184217752,-0.6758,-0.5396,0.6035,12.99,-26.22,10.98
1987,2184222629,-0.6641,-0.5430,0.6006,10.91,-26.10,11.22
1988,2184227628,-0.6680,-0.5371,0.6021,8.17,-25.91,11.40
1989,2184232629,-0.6675,-0.5327,0.6099,4.63,-25.61,11.46
1990,2184237628,-0.6602,-0.5293,0.6104,0.55,-25.24,11.52
