# skilleye imu stream v1
# device=xiao_esp32c6 imu=mpu6050 addr=0x68
# rate_hz=200 accel_range_g=16 gyro_range_dps=2000 dlpf_hz=94
# units: accel in g, gyro in deg/s, t_us in microseconds since boot (monotonic)
# no shared clock with the camera -- tap the racket once before each take
# so both recordings share a spike to align on
seq,t_us,ax,ay,az,gx,gy,gz
0,2226382629,0.6812,0.4604,0.1714,117.87,-63.60,-1.89
1,2226387635,0.6836,0.4331,0.1494,120.37,-64.15,-3.35
2,2226392627,0.6772,0.4395,0.1299,122.13,-65.49,-5.00
3,2226397627,0.7065,0.4409,0.1294,123.54,-65.06,-7.07
4,2226402629,0.7334,0.4570,0.1016,125.24,-65.61,-9.45
5,2226407630,0.7505,0.4785,0.0811,127.26,-65.61,-12.07
6,2226412629,0.7407,0.5005,0.0625,129.76,-65.24,-14.45
7,2226417628,0.7188,0.5103,0.0415,132.56,-64.82,-16.95
8,2226422629,0.6851,0.5146,0.0273,134.02,-63.72,-18.84
9,2226427627,0.6592,0.5234,0.0142,133.78,-62.38,-20.37
10,2226432629,0.6440,0.5415,-0.0107,131.59,-61.22,-21.52
11,2226438188,0.6387,0.5664,-0.0454,125.24,-59.88,-22.62
12,2226442629,0.6372,0.5698,-0.0723,119.39,-59.27,-23.17
13,2226447628,0.6523,0.5859,-0.0464,110.67,-58.54,-23.78
14,2226452627,0.6362,0.5742,-0.0884,100.30,-57.74,-24.15
15,2226457627,0.6240,0.5718,-0.1353,90.43,-57.13,-24.33
16,2226462629,0.6108,0.5923,-0.1367,82.07,-56.04,-24.39
17,2226467627,0.6147,0.6230,-0.1440,75.55,-54.39,-24.45
18,2226472627,0.6328,0.6504,-0.1816,71.22,-52.62,-24.45
19,2226477631,0.6299,0.6689,-0.1973,68.35,-50.49,-24.70
20,2226482629,0.6255,0.6860,-0.1870,66.52,-48.11,-24.82
21,2226487731,0.6245,0.7085,-0.2002,64.88,-45.73,-24.63
22,2226492629,0.6040,0.7295,-0.2212,63.05,-43.60,-24.15
23,2226497628,0.5894,0.7529,-0.2090,60.43,-41.22,-23.17
24,2226502629,0.5742,0.7910,-0.2178,57.20,-39.02,-21.89
25,2226507627,0.5693,0.8174,-0.2197,53.29,-36.71,-20.12
26,2226512629,0.5645,0.8447,-0.2183,48.84,-34.39,-18.29
27,2226517628,0.5708,0.8545,-0.2056,44.09,-32.50,-16.22
28,2226522629,0.5767,0.8662,-0.1812,39.51,-30.37,-13.96
29,2226527628,0.5845,0.8779,-0.1562,35.06,-28.48,-11.52
30,2226532629,0.5981,0.8838,-0.1377,31.28,-26.89,-9.15
31,2226537627,0.6011,0.8906,-0.1191,28.23,-25.24,-7.01
32,2226542629,0.6235,0.8921,-0.0850,26.04,-23.54,-5.00
33,2226547628,0.6333,0.8843,-0.0688,24.70,-22.01,-3.23
34,2226552629,0.6313,0.8779,-0.0571,23.90,-20.61,-1.40
35,2226557627,0.6377,0.8633,-0.0562,23.41,-19.33,0.24
36,2226562629,0.6328,0.8481,-0.0645,23.29,-17.93,1.83
37,2226567627,0.6245,0.8325,-0.0845,23.35,-16.83,3.23
38,2226572631,0.6167,0.8169,-0.1118,23.72,-15.43,4.70
39,2226577628,0.6187,0.8032,-0.1343,24.21,-14.45,5.73
40,2226582627,0.6201,0.7837,-0.1416,24.45,-13.17,6.71
41,2226587629,0.6270,0.7603,-0.1572,24.76,-12.20,7.50
42,2226592628,0.6338,0.7480,-0.1646,25.18,-11.40,7.93
43,2226597629,0.6436,0.7266,-0.1660,25.49,-10.55,8.17
44,2226602628,0.6494,0.7134,-0.1631,25.67,-9.82,8.11
45,2226607630,0.6494,0.6963,-0.1528,25.91,-9.21,7.80
46,2226612629,0.6553,0.6860,-0.1367,25.98,-8.78,7.38
47,2226617629,0.6597,0.6782,-0.1201,25.73,-8.54,6.59
48,2226622628,0.6577,0.6631,-0.1030,25.18,-8.48,5.85
49,2226627629,0.6597,0.6548,-0.0859,24.45,-8.66,4.88
50,2226632629,0.6631,0.6475,-0.0552,23.41,-8.96,3.66
51,2226637629,0.6655,0.6309,-0.0352,22.26,-9.51,2.32
52,2226642628,0.6753,0.6138,-0.0215,21.04,-10.55,0.67
53,2226647629,0.6831,0.5923,-0.0161,19.70,-11.46,-1.34
54,2226652629,0.6929,0.5806,-0.0107,18.66,-12.68,-3.41
55,2226657629,0.6899,0.5635,-0.0117,17.99,-13.90,-5.79
56,2226662628,0.6870,0.5474,-0.0215,17.68,-15.12,-8.29
57,2226667629,0.6865,0.5391,-0.0391,17.80,-16.40,-10.85
58,2226672629,0.6851,0.5396,-0.0518,18.96,-17.56,-13.35
59,2226677629,0.6875,0.5430,-0.0752,20.67,-18.66,-15.67
60,2226682628,0.6855,0.5435,-0.0977,23.35,-19.63,-17.93
61,2226688173,0.6904,0.5737,-0.1050,27.38,-20.79,-20.37
62,2226692631,0.6846,0.5869,-0.1001,30.18,-21.52,-21.77
63,2226697628,0.6782,0.6128,-0.1064,33.05,-22.32,-23.11
64,2226702627,0.6738,0.6377,-0.1128,34.82,-23.29,-24.09
65,2226707627,0.6675,0.6685,-0.1099,35.37,-23.96,-24.70
66,2226712629,0.6523,0.6973,-0.1167,34.70,-24.94,-24.88
67,2226717627,0.6436,0.7153,-0.1221,33.23,-25.73,-24.76
68,2226722629,0.6289,0.7300,-0.1182,31.34,-26.52,-24.27
69,2226727628,0.6128,0.7480,-0.1226,29.09,-27.13,-23.41
70,2226732630,0.6060,0.7607,-0.1279,26.77,-27.74,-22.38
71,2226737627,0.5991,0.7705,-0.1284,24.57,-28.23,-21.10
72,2226742629,0.5879,0.7817,-0.1387,22.74,-28.90,-19.76
73,2226747627,0.5884,0.7827,-0.1455,21.59,-29.33,-18.29
74,2226752629,0.5869,0.7822,-0.1411,21.10,-29.76,-16.59
75,2226757628,0.5869,0.7852,-0.1392,21.59,-30.24,-14.82
76,2226762629,0.5962,0.7861,-0.1455,22.93,-30.55,-13.11
77,2226767627,0.6021,0.7983,-0.1211,24.76,-31.34,-11.46
78,2226772629,0.6201,0.7959,-0.1255,27.13,-31.83,-9.76
79,2226777629,0.6289,0.8076,-0.1411,29.57,-32.44,-8.11
80,2226782629,0.6270,0.8218,-0.1431,31.59,-33.23,-6.40
81,2226787744,0.6445,0.8354,-0.1416,33.48,-34.09,-4.21
82,2226792629,0.6562,0.8433,-0.1558,34.63,-34.51,-2.62
83,2226797627,0.6631,0.8506,-0.1553,36.10,-35.06,-0.79
84,2226802629,0.6592,0.8584,-0.1538,36.95,-35.73,1.10
85,2226807629,0.6514,0.8613,-0.1782,36.04,-36.22,3.54
86,2226812631,0.6538,0.8613,-0.1709,34.51,-36.10,5.12
87,2226817627,0.6499,0.8672,-0.2197,30.98,-36.34,7.01
88,2226822629,0.6470,0.8687,-0.2144,26.59,-36.59,8.72
89,2226827628,0.6514,0.8594,-0.2168,22.87,-36.89,10.43
90,2226832630,0.6611,0.8481,-0.2197,20.06,-36.95,11.95
91,2226837627,0.6758,0.8247,-0.2119,18.05,-36.83,13.17
92,2226842629,0.6846,0.8037,-0.2319,16.89,-36.89,14.27
93,2226847627,0.6948,0.8286,-0.2012,15.85,-37.20,15.00
94,2226852629,0.7114,0.7817,-0.1865,14.76,-37.44,15.37
95,2226857628,0.7104,0.7617,-0.2451,14.76,-37.62,15.79
96,2226862629,0.7085,0.7568,-0.2119,15.30,-37.87,16.10
97,2226867627,0.7041,0.7573,-0.2207,16.28,-37.87,16.28
98,2226872629,0.7104,0.7563,-0.2598,18.17,-38.05,16.46
99,2226877627,0.7202,0.7603,-0.2573,20.30,-38.05,16.65
100,2226882629,0.7183,0.7515,-0.2510,22.62,-37.87,16.71
101,2226887629,0.7075,0.7476,-0.2808,24.39,-38.05,16.89
102,2226892629,0.7085,0.7505,-0.3003,25.37,-37.74,17.07
103,2226897627,0.7056,0.7568,-0.3022,25.79,-37.50,17.26
104,2226902629,0.7002,0.7637,-0.3193,25.55,-37.01,17.56
105,2226907629,0.6987,0.7759,-0.3408,24.88,-36.28,18.11
106,2226912629,0.6968,0.7720,-0.3306,23.96,-35.91,18.54
107,2226917627,0.6978,0.7861,-0.3428,22.44,-35.12,19.15
108,2226922629,0.6865,0.7896,-0.3589,20.55,-34.39,19.82
109,2226927628,0.6714,0.7900,-0.3540,18.48,-33.35,20.67
110,2226932629,0.6558,0.7847,-0.3394,15.61,-32.50,21.52
111,2226937628,0.6528,0.7769,-0.3281,12.68,-31.59,22.32
112,2226942629,0.6523,0.7705,-0.3398,10.49,-30.79,23.17
113,2226947627,0.6377,0.7651,-0.3379,9.27,-30.00,23.78
114,2226952629,0.6299,0.7603,-0.3301,9.02,-29.33,24.27
115,2226957629,0.6284,0.7422,-0.3267,9.70,-28.54,24.76
116,2226962629,0.6143,0.7271,-0.3198,11.46,-27.93,25.12
117,2226967630,0.6089,0.7041,-0.3232,14.39,-26.95,25.37
118,2226972628,0.6099,0.7007,-0.3418,18.78,-26.16,25.43
119,2226977629,0.6006,0.7031,-0.3442,23.60,-25.30,25.55
120,2226982630,0.5840,0.7104,-0.3467,27.56,-24.39,25.55
121,2226987629,0.5791,0.7056,-0.3599,30.37,-23.29,25.79
122,2226992630,0.5757,0.6973,-0.3511,31.71,-22.56,25.91
123,2226997629,0.5757,0.6919,-0.3438,31.52,-21.40,25.98
124,2227002630,0.5664,0.6860,-0.3438,28.54,-20.30,26.04
125,2227007629,0.5679,0.6772,-0.3511,24.94,-19.45,26.04
126,2227012630,0.5869,0.6616,-0.3438,17.68,-18.29,25.85
127,2227017629,0.5894,0.6523,-0.3330,10.67,-17.56,25.49
128,2227022630,0.5938,0.6367,-0.3433,3.72,-16.65,24.94
129,2227027629,0.5952,0.6230,-0.3398,-2.44,-15.85,24.45
130,2227032628,0.5913,0.6133,-0.3408,-6.89,-15.18,23.96
131,2227037630,0.5854,0.5996,-0.3413,-11.95,-14.33,23.17
132,2227042629,0.6016,0.5874,-0.3633,-14.39,-13.60,22.50
133,2227047629,0.6104,0.5850,-0.3823,-14.57,-12.74,21.77
134,2227052628,0.6167,0.5762,-0.4233,-13.96,-12.20,21.10
135,2227057629,0.6182,0.5591,-0.4453,-11.22,-11.10,20.37
136,2227062629,0.6279,0.5435,-0.4521,-8.11,-10.06,19.76
137,2227067629,0.6362,0.5298,-0.4629,-3.17,-8.84,18.78
138,2227072628,0.6338,0.5166,-0.4814,-0.12,-7.93,18.05
139,2227077629,0.6338,0.5098,-0.4814,4.02,-6.40,16.95
140,2227082629,0.6187,0.5327,-0.4790,6.16,-5.43,16.16
141,2227087629,0.6157,0.5352,-0.4648,7.44,-4.15,15.18
142,2227092671,0.6299,0.5317,-0.4746,7.50,-3.17,14.63
143,2227097629,0.6113,0.5317,-0.4766,6.95,-2.13,14.02
144,2227102630,0.6011,0.5269,-0.4497,6.52,-0.91,13.29
145,2227107629,0.5444,0.5439,-0.4424,5.49,0.06,12.93
146,2227112630,0.5859,0.5610,-0.4263,3.60,1.10,12.87
147,2227117629,0.5293,0.6489,-0.4370,1.83,2.13,12.74
148,2227122631,0.5479,0.6294,-0.3896,-3.23,3.05,12.99
149,2227127629,0.5913,0.6245,-0.4258,-8.35,3.48,13.66
150,2227132627,0.5635,0.6157,-0.3403,-13.72,4.15,14.21
151,2227137629,0.5815,0.6245,-0.3652,-18.48,5.12,15.12
152,2227142628,0.6191,0.6802,-0.4478,-21.04,5.43,15.73
153,2227147629,0.6177,0.6899,-0.4116,-22.93,5.85,16.89
154,2227152627,0.5928,0.7002,-0.3579,-23.48,6.34,17.80
155,2227157629,0.6152,0.6826,-0.3579,-23.78,6.34,18.96
156,2227162628,0.6396,0.6860,-0.3457,-23.29,6.10,20.00
157,2227167629,0.6484,0.6851,-0.2954,-21.40,5.85,20.79
158,2227172627,0.6543,0.6826,-0.2881,-18.11,5.30,21.28
159,2227177629,0.6650,0.6699,-0.2842,-14.39,4.70,21.65
160,2227182628,0.6738,0.6602,-0.2700,-10.37,3.84,21.71
161,2227187631,0.6748,0.6426,-0.2788,-6.46,3.05,21.71
162,2227192627,0.6812,0.6299,-0.2837,-2.68,2.20,21.59
163,2227197632,0.6621,0.6265,-0.2964,0.61,1.40,21.34
164,2227202629,0.6543,0.6069,-0.3027,3.17,0.61,20.98
165,2227207629,0.6694,0.5942,-0.3320,5.37,-0.18,20.67
166,2227212629,0.6567,0.5854,-0.3364,6.71,-0.85,20.24
167,2227217633,0.6465,0.5708,-0.3389,7.38,-1.46,19.70
168,2227222630,0.6421,0.5693,-0.3555,7.44,-1.89,19.15
169,2227227628,0.6304,0.5703,-0.3706,6.89,-2.13,18.84
170,2227232629,0.6147,0.5723,-0.3901,5.73,-2.32,18.48
171,2227237629,0.5977,0.5713,-0.4131,4.51,-2.26,18.17
172,2227242629,0.5957,0.5684,-0.4253,3.29,-2.26,17.93
173,2227247628,0.5815,0.5674,-0.4385,2.32,-2.01,17.68
174,2227252629,0.5811,0.5586,-0.4360,1.71,-1.65,17.56
175,2227257628,0.5850,0.5542,-0.4268,1.95,-1.34,17.13
176,2227262629,0.5791,0.5459,-0.4185,2.32,-1.04,16.71
177,2227267629,0.5757,0.5430,-0.4126,2.62,-0.37,16.10
178,2227272629,0.5742,0.5327,-0.3945,2.44,-0.06,15.37
179,2227277628,0.5732,0.5381,-0.3896,1.59,0.30,14.51
180,2227282630,0.5693,0.5386,-0.3906,0.49,0.55,13.66
181,2227288143,0.5684,0.5391,-0.3799,-1.16,0.79,12.74
182,2227292629,0.5737,0.5449,-0.3604,-2.74,1.10,11.95
183,2227297629,0.5752,0.5498,-0.3525,-4.15,1.28,11.16
184,2227302628,0.5771,0.5601,-0.3525,-5.30,1.65,10.24
185,2227307629,0.5903,0.5684,-0.3418,-6.16,1.59,9.33
186,2227312628,0.6270,0.5728,-0.3262,-6.40,1.52,8.48
187,2227317629,0.6260,0.5854,-0.3149,-6.16,1.46,7.68
188,2227322629,0.6406,0.5972,-0.3032,-5.37,1.52,6.59
189,2227327628,0.6577,0.6113,-0.2983,-4.15,1.34,5.61
190,2227332629,0.6748,0.6182,-0.2910,-2.68,1.40,4.57
191,2227337629,0.6895,0.6313,-0.2808,-1.34,1.22,3.60
192,2227342629,0.7017,0.6304,-0.2739,-0.24,1.16,2.56
193,2227347628,0.7104,0.6465,-0.2832,0.30,0.98,1.65
194,2227352628,0.7104,0.6689,-0.2822,0.55,0.85,0.79
195,2227357629,0.7212,0.6831,-0.2812,0.61,0.85,0.12
196,2227362629,0.7344,0.7021,-0.2871,0.43,0.67,-0.55
197,2227367628,0.7417,0.7207,-0.2905,0.00,0.67,-0.85
198,2227372627,0.7373,0.7412,-0.2993,-0.85,0.85,-0.98
199,2227377630,0.7280,0.7705,-0.3188,-2.32,1.04,-0.91
200,2227382754,0.7080,0.7979,-0.3398,-4.02,1.28,-0.55
201,2227387629,0.7231,0.8184,-0.3447,-5.55,1.52,0.37
202,2227392629,0.7319,0.8403,-0.3584,-6.71,1.77,1.34
203,2227397627,0.7329,0.8525,-0.3647,-7.20,2.20,2.62
204,2227402627,0.7490,0.8755,-0.3735,-7.07,2.44,4.21
205,2227407632,0.7593,0.8965,-0.3755,-6.28,2.74,5.98
206,2227412633,0.7627,0.9185,-0.3794,-4.94,3.11,7.87
207,2227417627,0.7627,0.9326,-0.3804,-3.29,3.54,10.12
208,2227422671,0.7695,0.9448,-0.3789,-1.46,4.02,12.44
209,2227427655,0.7715,0.9565,-0.3853,0.24,4.45,15.00
210,2227432628,0.7729,0.9663,-0.3740,1.59,5.12,17.68
211,2227437627,0.7710,0.9707,-0.3853,2.20,5.73,20.61
212,2227442629,0.7710,0.9736,-0.3848,2.20,6.46,23.60
213,2227447628,0.7773,0.9785,-0.3809,1.83,7.13,26.65
214,2227452629,0.7783,0.9766,-0.3755,1.04,7.68,29.94
215,2227457629,0.7764,0.9771,-0.3701,0.12,8.41,33.17
216,2227462628,0.7759,0.9741,-0.3633,-0.91,9.33,36.52
217,2227467627,0.7856,0.9653,-0.3613,-1.71,9.94,39.70
218,2227472949,0.7905,0.9604,-0.3535,-2.32,10.79,43.05
219,2227477629,0.7881,0.9521,-0.3442,-2.56,11.59,46.22
220,2227482629,0.7812,0.9395,-0.3457,-3.05,12.32,49.39
221,2227487628,0.7847,0.9253,-0.3452,-3.29,13.17,52.38
222,2227492630,0.7988,0.9082,-0.3447,-3.60,14.02,55.12
223,2227498133,0.8105,0.8970,-0.3330,-3.54,14.94,57.74
224,2227502630,0.8213,0.8730,-0.3413,-3.11,15.91,60.00
225,2227507627,0.8198,0.8467,-0.3364,-2.32,16.83,62.01
226,2227512627,0.8140,0.8286,-0.3394,-0.67,17.87,63.96
227,2227517629,0.8101,0.8086,-0.3281,1.71,18.72,65.73
228,2227522628,0.8110,0.7847,-0.3267,4.63,20.12,67.32
229,2227527627,0.8120,0.7651,-0.3164,7.26,21.22,68.84
230,2227532630,0.8022,0.7495,-0.3110,9.15,22.38,70.18
231,2227537629,0.7949,0.7275,-0.3027,9.57,23.41,71.40
232,2227542629,0.7871,0.7085,-0.2905,8.29,24.57,72.62
233,2227547629,0.7803,0.6909,-0.2920,5.55,25.61,73.66
234,2227552628,0.7842,0.6733,-0.2847,1.34,26.59,74.63
235,2227557629,0.7954,0.6558,-0.2808,-4.21,27.38,75.55
236,2227562627,0.7866,0.6372,-0.2769,-10.79,28.11,76.28
237,2227567628,0.7847,0.6216,-0.2744,-17.68,28.72,77.07
238,2227572630,0.7778,0.6055,-0.2690,-24.51,29.09,77.87
239,2227577628,0.7773,0.5957,-0.2700,-30.18,29.51,78.41
240,2227582630,0.7754,0.5864,-0.2690,-34.39,29.94,79.15
241,2227587627,0.7803,0.5767,-0.2661,-37.26,30.18,79.82
242,2227592631,0.7656,0.5674,-0.2749,-38.90,30.18,80.49
243,2227597629,0.7603,0.5488,-0.2871,-39.15,30.18,81.04
244,2227602630,0.7646,0.5410,-0.2891,-37.74,29.94,81.59
245,2227607627,0.7715,0.5322,-0.2896,-34.27,29.82,82.26
246,2227612629,0.7720,0.5249,-0.2905,-28.96,29.51,82.80
247,2227617628,0.7729,0.5112,-0.2847,-22.32,29.21,83.41
248,2227622630,0.7705,0.5010,-0.2871,-15.30,29.15,83.90
249,2227628110,0.7646,0.4897,-0.2881,-9.15,29.15,84.39
250,2227632630,0.7603,0.4771,-0.2915,-4.82,28.96,85.12
251,2227637628,0.7544,0.4663,-0.2944,-2.38,28.84,86.10
252,2227642629,0.7573,0.4531,-0.2915,-1.89,28.48,86.59
253,2227647629,0.7529,0.4419,-0.2954,-3.11,28.17,87.13
254,2227652629,0.7334,0.4282,-0.2954,-5.30,28.05,87.99
255,2227657628,0.7324,0.4214,-0.2993,-7.74,27.74,87.74
256,2227662629,0.7231,0.4043,-0.3081,-10.30,27.38,89.02
257,2227667628,0.7227,0.3940,-0.3066,-12.32,26.95,89.51
258,2227672629,0.7090,0.3818,-0.3071,-13.11,26.95,90.24
259,2227677629,0.6855,0.3599,-0.3125,-12.68,26.77,90.91
260,2227682629,0.6777,0.3340,-0.3130,-10.79,26.59,91.52
261,2227687630,0.6821,0.3115,-0.3086,-7.68,26.71,91.95
262,2227692629,0.6768,0.2861,-0.2993,-3.66,26.77,92.20
263,2227697627,0.6655,0.2510,-0.2969,0.73,26.77,92.20
264,2227702629,0.6616,0.2227,-0.2983,5.12,26.89,91.83
265,2227707629,0.6685,0.1812,-0.2896,9.51,27.07,91.28
266,2227712629,0.6758,0.1455,-0.2729,13.72,27.07,90.37
267,2227717628,0.6738,0.1104,-0.2617,17.13,27.07,89.09
268,2227722629,0.6948,0.0811,-0.2471,19.51,27.01,87.20
269,2227727628,0.7017,0.0405,-0.2393,20.73,27.13,85.43
270,2227732629,0.7051,0.0034,-0.2261,20.43,26.83,82.68
271,2227737630,0.6982,-0.0254,-0.2251,19.02,26.46,79.51
272,2227742629,0.7046,-0.0547,-0.2109,16.83,25.98,76.22
273,2227747628,0.7041,-0.0820,-0.2090,14.63,25.79,72.44
274,2227752629,0.6821,-0.1094,-0.2065,12.32,25.49,68.66
275,2227757628,0.6841,-0.1431,-0.1958,10.55,24.94,64.57
276,2227762629,0.6787,-0.1660,-0.1948,9.27,24.70,60.18
277,2227767628,0.6729,-0.1924,-0.1953,8.96,24.51,55.37
278,2227772628,0.6719,-0.2207,-0.1851,9.94,24.15,50.55
279,2227777629,0.6655,-0.2466,-0.1733,11.89,23.96,45.37
280,2227782628,0.6567,-0.2725,-0.1670,14.88,23.78,40.06
281,2227787629,0.6533,-0.2993,-0.1543,18.84,23.60,34.33
282,2227792628,0.6543,-0.3281,-0.1333,23.35,23.41,28.48
283,2227797629,0.6475,-0.3491,-0.1182,27.93,23.11,22.32
284,2227802627,0.6426,-0.3701,-0.0972,32.32,22.74,15.79
285,2227807630,0.6401,-0.3906,-0.0776,35.91,22.38,9.09
286,2227812628,0.6260,-0.4111,-0.0605,38.23,21.95,2.01
287,2227817629,0.6133,-0.4331,-0.0435,38.96,21.52,-5.18
288,2227822627,0.6064,-0.4414,-0.0312,38.05,20.85,-12.68
289,2227827627,0.6021,-0.4414,-0.0337,35.18,20.37,-20.37
290,2227832629,0.5957,-0.4536,-0.0308,30.73,19.94,-28.23
291,2227837628,0.5884,-0.4526,-0.0410,25.18,19.51,-36.16
292,2227842627,0.5752,-0.4463,-0.0503,19.45,19.15,-44.33
293,2227847627,0.5596,-0.4380,-0.0620,14.57,18.96,-52.26
294,2227852629,0.5376,-0.4185,-0.0698,11.10,19.15,-60.12
295,2227857628,0.5200,-0.4048,-0.0879,9.57,19.39,-67.68
296,2227862627,0.5059,-0.3877,-0.0972,9.82,19.70,-75.24
297,2227867629,0.4912,-0.3740,-0.0977,11.83,20.00,-82.50
298,2227872628,0.4805,-0.3574,-0.0996,15.18,20.55,-89.76
299,2227877629,0.4771,-0.3423,-0.1089,19.27,20.91,-96.89
300,2227882627,0.4780,-0.3364,-0.1099,23.84,21.10,-103.84
301,2227887629,0.4780,-0.3286,-0.0947,28.78,21.28,-111.04
302,2227892779,0.4746,-0.3203,-0.0771,33.96,21.28,-118.17
303,2227897631,0.5024,-0.3071,-0.0547,38.35,21.04,-125.43
304,2227902629,0.5317,-0.2944,-0.0400,41.65,20.49,-133.11
305,2227907627,0.5542,-0.2690,-0.0337,42.80,19.51,-140.67
306,2227912628,0.5864,-0.2495,-0.0322,41.77,18.29,-148.54
307,2227917629,0.6265,-0.2188,-0.0322,38.48,16.89,-156.28
308,2227922627,0.6401,-0.1836,-0.0259,32.93,15.37,-163.78
309,2227927629,0.6367,-0.1382,-0.0293,25.91,13.78,-171.10
310,2227932629,0.6401,-0.0923,-0.0366,18.17,12.20,-177.93
311,2227937628,0.6362,-0.0400,-0.0469,10.37,10.73,-184.27
312,2227942627,0.6504,0.0347,-0.0615,3.35,9.51,-190.00
313,2227947627,0.6646,0.1064,-0.0776,-2.44,8.66,-195.30
314,2227952627,0.6597,0.1909,-0.1055,-7.01,8.41,-200.00
315,2227957631,0.6509,0.2734,-0.1455,-10.43,8.23,-203.96
316,2227962628,0.6465,0.3545,-0.1782,-12.32,8.48,-207.13
317,2227967629,0.6445,0.4604,-0.2256,-12.32,8.90,-209.21
318,2227972632,0.7495,1.4453,-0.2344,-10.12,9.88,-209.82
319,2227977629,1.3638,11.7266,0.3076,-18.90,10.00,-145.43
320,2227982628,1.2725,4.7637,0.5229,-77.01,0.55,-46.77
321,2227987629,1.2671,2.9790,0.6211,-123.48,-6.34,-6.34
322,2227992627,1.1201,2.4360,0.1968,-118.05,-5.00,11.65
323,2227997629,1.0601,1.8687,-0.4600,-85.43,-3.78,19.51
324,2228002629,0.9219,1.0659,-0.3491,-44.09,-2.50,23.96
325,2228007629,0.9390,0.5518,-0.1777,-11.10,-1.04,26.40
326,2228012629,0.9585,0.5576,-0.3452,13.41,-1.40,27.68
327,2228017627,0.9541,0.8159,-0.2866,29.45,-3.11,28.11
328,2228022627,0.9585,0.9736,-0.0835,43.11,-3.23,28.35
329,2228027713,0.9707,0.9150,-0.1367,55.24,-2.74,28.60
330,2228032627,0.9717,0.7583,-0.2144,62.44,-3.05,29.21
331,2228037629,0.9644,0.6851,-0.1323,63.23,-3.41,30.43
332,2228042629,0.9526,0.7197,-0.1187,58.11,-3.90,31.83
333,2228047629,0.9546,0.8081,-0.1807,48.96,-4.45,33.35
334,2228052628,0.9468,0.8687,-0.1572,37.07,-4.88,35.06
335,2228057629,0.9297,0.8682,-0.1250,23.78,-4.70,37.07
336,2228062628,0.9072,0.8389,-0.1650,10.30,-4.63,39.63
337,2228067627,0.8804,0.8354,-0.1914,-2.26,-4.45,42.80
338,2228072629,0.8584,0.8643,-0.1865,-12.99,-3.96,46.10
339,2228077629,0.8330,0.8984,-0.2056,-20.67,-3.11,49.88
340,2228082630,0.7959,0.9302,-0.2339,-25.30,-2.32,53.72
341,2228087627,0.7612,0.9312,-0.2349,-26.65,-1.28,57.93
342,2228092905,0.7451,0.9248,-0.2310,-24.94,-0.12,62.32
343,2228097629,0.7397,0.9106,-0.2427,-20.73,0.91,66.59
344,2228102628,0.7578,0.8994,-0.2437,-14.33,2.01,70.98
345,2228107629,0.7661,0.8823,-0.2217,-6.77,3.17,75.12
346,2228112627,0.7729,0.8633,-0.2139,0.85,4.21,79.39
347,2228117629,0.7686,0.8311,-0.1978,7.26,5.12,83.29
348,2228122630,0.7729,0.7935,-0.1875,11.52,5.85,86.89
349,2228127628,0.7949,0.7573,-0.1758,13.41,6.16,90.30
350,2228132629,0.7969,0.7231,-0.1665,12.93,6.40,93.54
351,2228137629,0.7896,0.6836,-0.1514,10.49,6.46,96.34
352,2228142629,0.7754,0.6396,-0.1411,6.34,6.34,98.90
353,2228147629,0.7817,0.5874,-0.1294,1.10,6.10,101.04
354,2228152629,0.7930,0.5420,-0.1235,-4.76,5.49,102.74
355,2228157628,0.7891,0.4824,-0.1069,-10.73,5.12,104.02
356,2228162629,0.7876,0.4263,-0.0981,-16.04,4.51,104.82
357,2228167628,0.7847,0.3711,-0.0889,-20.37,3.72,105.06
358,2228172629,0.7803,0.3145,-0.0732,-23.48,3.05,104.76
359,2228177628,0.7681,0.2642,-0.0605,-24.88,2.26,104.02
360,2228182631,0.7666,0.2026,-0.0410,-25.12,1.40,102.68
361,2228187628,0.7593,0.1411,-0.0283,-24.09,0.37,100.73
362,2228192629,0.7563,0.0859,-0.0015,-22.44,-0.73,98.23
363,2228197631,0.7480,0.0244,0.0054,-20.49,-1.95,95.12
364,2228202628,0.7437,-0.0371,0.0171,-18.66,-3.35,91.46
365,2228207627,0.7515,-0.0918,0.0225,-17.32,-4.57,87.26
366,2228212629,0.7534,-0.1606,0.0288,-16.52,-5.91,81.89
367,2228217629,0.7510,-0.2227,0.0308,-16.16,-7.26,76.04
368,2228223163,0.7441,-0.2832,0.0405,-15.98,-8.66,69.51
369,2228227629,0.7349,-0.3389,0.0400,-15.85,-9.94,62.38
370,2228232629,0.7427,-0.3848,0.0303,-15.61,-10.98,54.57
371,2228237627,0.7510,-0.4258,0.0156,-15.00,-11.95,46.16
372,2228242629,0.7349,-0.4639,-0.0015,-13.54,-12.87,37.32
373,2228247629,0.7124,-0.4961,-0.0103,-10.49,-13.66,28.29
374,2228252628,0.6865,-0.5151,-0.0347,-5.98,-14.33,18.90
375,2228257629,0.6719,-0.5356,-0.0410,0.37,-14.70,9.45
376,2228262627,0.6465,-0.5503,-0.0503,7.93,-14.76,0.00
377,2228267630,0.6099,-0.5635,-0.0498,16.28,-14.76,-9.39
378,2228272628,0.5996,-0.5674,-0.0503,24.45,-14.63,-18.90
379,2228277629,0.6030,-0.5654,-0.0654,31.22,-14.39,-28.66
380,2228282627,0.6069,-0.5688,-0.0757,36.04,-14.21,-38.35
381,2228287629,0.5967,-0.5645,-0.0791,38.54,-14.09,-48.23
382,2228292628,0.5996,-0.5513,-0.0737,38.60,-13.96,-58.11
383,2228297629,0.6045,-0.5381,-0.0815,36.04,-13.72,-67.99
384,2228302627,0.5908,-0.5254,-0.0840,31.16,-13.41,-77.93
385,2228307629,0.5781,-0.5122,-0.0894,24.15,-13.05,-87.68
386,2228312629,0.5649,-0.4912,-0.0967,15.85,-12.50,-97.26
387,2228317629,0.5527,-0.4707,-0.1006,7.07,-12.07,-106.65
388,2228322629,0.5562,-0.4443,-0.0962,-1.59,-11.34,-116.10
389,2228327629,0.5576,-0.4126,-0.1011,-9.57,-10.61,-125.30
390,2228332627,0.5596,-0.3745,-0.1040,-16.89,-9.94,-134.45
391,2228337629,0.5762,-0.3345,-0.1094,-23.29,-8.90,-143.48
392,2228342628,0.5962,-0.2910,-0.1182,-28.48,-7.99,-152.32
393,2228347629,0.5923,-0.2471,-0.1274,-32.56,-6.95,-161.16
394,2228352627,0.5830,-0.2041,-0.1313,-35.73,-6.16,-169.63
395,2228357629,0.5928,-0.1396,-0.1445,-38.17,-5.24,-177.93
396,2228362628,0.6182,-0.0752,-0.1514,-40.37,-4.09,-185.85
397,2228367630,0.6201,-0.0137,-0.1567,-42.62,-2.87,-193.41
398,2228372793,0.5938,0.0479,-0.1670,-45.30,-1.28,-200.18
399,2228378090,0.5498,0.1060,-0.1680,-48.11,0.55,-206.22
400,2228382629,0.5127,0.1748,-0.1792,-51.28,2.38,-211.34
401,2228387629,1.6973,10.2114,-0.3228,-47.38,5.49,-187.80
402,2228392629,1.1880,8.0801,-0.1685,-8.48,7.99,-89.76
403,2228397628,1.3340,4.0181,0.5918,-34.94,5.55,-35.85
404,2228402629,1.0991,1.5288,0.1001,-82.20,-2.13,-5.79
405,2228407627,0.9609,0.8149,-0.0278,-103.96,-7.01,10.00
406,2228412629,0.8779,0.9868,0.1284,-100.43,-6.16,15.55
407,2228417628,0.8647,1.0200,-0.1011,-83.29,-4.45,14.51
408,2228422630,0.8979,0.7241,-0.2578,-67.07,-5.12,10.61
409,2228427629,0.8491,0.3008,-0.0264,-53.90,-5.98,6.46
410,2228432629,0.8154,0.0020,0.0483,-41.46,-6.28,2.80
411,2228437628,0.8130,0.0659,-0.0991,-29.27,-7.99,-0.73
412,2228442629,0.8071,0.3252,-0.0249,-17.80,-9.45,-4.88
413,2228447629,0.8052,0.5068,0.1074,-7.68,-10.30,-9.21
414,2228452627,0.8169,0.4771,0.0264,0.91,-11.59,-13.05
415,2228457630,0.8130,0.3462,0.0039,7.20,-13.23,-16.40
416,2228462629,0.7939,0.2686,0.0938,10.91,-14.39,-19.21
417,2228467628,0.7705,0.3218,0.0942,12.62,-15.49,-21.52
418,2228472630,0.7627,0.4595,0.0327,11.59,-16.89,-23.72
419,2228477627,0.7529,0.5933,0.0596,8.17,-18.11,-25.67
420,2228482629,0.7422,0.6592,0.0903,2.62,-19.02,-26.46
421,2228487810,0.7378,0.6675,0.0537,-5.30,-20.06,-26.16
422,2228492629,0.7441,0.6606,0.0488,-14.82,-21.16,-25.12
423,2228497627,0.7368,0.6606,0.0747,-25.61,-21.83,-24.09
424,2228502630,0.7021,0.6812,0.0562,-37.13,-22.38,-23.35
425,2228507629,0.6660,0.6973,0.0186,-49.27,-22.99,-22.93
426,2228512630,0.6387,0.7075,0.0176,-61.46,-23.54,-22.56
427,2228517628,0.6313,0.7041,0.0142,-73.17,-23.78,-22.13
428,2228522629,0.6304,0.7012,0.0044,-83.41,-23.96,-21.34
429,2228527629,0.6450,0.7158,0.0039,-91.52,-24.33,-20.18
430,2228532627,0.6597,0.7451,0.0117,-97.20,-24.15,-19.21
431,2228537627,0.6689,0.7568,0.0156,-100.61,-24.02,-17.93
432,2228542629,0.6826,0.7617,0.0078,-102.13,-23.60,-16.89
433,2228547628,0.6919,0.7539,0.0078,-102.26,-23.23,-15.79
434,2228552629,0.7100,0.7427,0.0049,-101.52,-22.93,-14.57
435,2228557629,0.7256,0.7402,-0.0024,-100.30,-22.68,-13.29
436,2228562629,0.7310,0.7432,-0.0122,-98.54,-22.50,-11.95
437,2228567628,0.7417,0.7471,-0.0083,-96.83,-22.50,-10.85
438,2228572628,0.7495,0.7544,0.0000,-95.24,-22.32,-9.57
439,2228577629,0.7671,0.7607,0.0078,-94.63,-22.13,-8.54
440,2228582628,0.7617,0.7529,0.0142,-95.43,-21.95,-7.50
441,2228587629,0.7529,0.7485,0.0200,-98.23,-21.71,-6.40
442,2228592629,0.7495,0.7383,0.0181,-103.41,-21.46,-5.18
443,2228597629,0.7520,0.7407,0.0049,-110.91,-21.40,-4.15
444,2228602627,0.7417,0.7432,0.0034,-120.12,-21.83,-3.48
445,2228607628,0.7363,0.7334,0.0005,-130.61,-21.89,-3.05
446,2228612629,0.7285,0.7192,-0.0054,-141.77,-22.07,-2.87
447,2228617629,0.7290,0.6978,-0.0132,-153.05,-22.44,-2.80
448,2228622629,0.7349,0.6689,-0.0288,-163.17,-22.56,-2.87
449,2228627629,0.7554,0.6445,-0.0396,-171.65,-22.74,-2.74
450,2228633027,0.7769,0.6265,-0.0439,-177.01,-22.93,-2.87
451,2228638118,0.8008,0.6279,-0.0469,-179.02,-22.87,-2.93
452,2228642630,0.8032,0.6294,-0.0244,-177.38,-22.50,-3.11
453,2228647629,0.7759,0.6260,-0.0156,-172.44,-21.77,-3.41
454,2228652630,0.7593,0.6187,-0.0117,-164.70,-20.85,-3.41
455,2228657629,0.7524,0.6147,0.0015,-155.18,-19.76,-3.60
456,2228662627,0.7500,0.6196,0.0049,-144.51,-18.54,-3.66
457,2228667629,0.7588,0.6245,0.0078,-133.72,-17.26,-3.96
458,2228672628,0.7656,0.6245,0.0122,-123.35,-16.10,-4.21
459,2228677630,0.7769,0.6201,0.0044,-114.15,-15.12,-4.76
460,2228682627,0.7910,0.6182,0.0107,-106.40,-14.39,-5.00
461,2228687627,0.7935,0.6309,0.0073,-100.24,-13.54,-5.67
462,2228692627,0.7817,0.6294,0.0117,-95.98,-12.99,-6.52
463,2228697627,0.7681,0.6392,-0.0190,-93.48,-12.26,-7.38
464,2228702627,0.7593,0.6294,-0.0024,-92.26,-11.65,-8.35
465,2228707629,0.7588,0.6270,0.0010,-91.77,-10.98,-9.45
466,2228712628,0.7524,0.6255,0.0181,-91.77,-9.88,-10.43
467,2228717629,0.7495,0.6187,0.0020,-92.50,-8.66,-11.46
468,2228722627,0.7383,0.6274,-0.0161,-93.72,-7.38,-12.56
469,2228727631,0.7383,0.6230,-0.0308,-94.94,-6.22,-13.84
470,2228732629,0.7515,0.6025,-0.0464,-95.24,-5.00,-14.76
471,2228737751,0.7588,0.5791,-0.0347,-94.21,-3.96,-15.37
472,2228742630,0.7593,0.5767,-0.0347,-91.95,-2.62,-15.67
473,2228747629,0.7588,0.6025,-0.0239,-88.35,-1.04,-16.10
474,2228752630,0.7593,0.6157,-0.0205,-83.66,0.37,-16.71
475,2228757631,0.7495,0.6265,-0.0020,-78.11,2.20,-17.44
476,2228762628,0.7471,0.6270,0.0254,-72.13,4.09,-18.05
477,2228767629,0.7725,0.6104,0.0410,-66.71,6.46,-18.72
478,2228772628,0.7900,0.6064,0.0312,-62.99,9.02,-19.15
479,2228777630,0.8032,0.6152,0.0171,-61.52,11.04,-19.76
480,2228782628,0.8574,0.5835,0.0122,-63.23,12.87,-20.06
481,2228787629,0.8140,0.6436,0.0059,-67.68,14.63,-21.04
482,2228792628,0.7524,0.6699,0.0210,-73.78,16.34,-22.68
483,2228797629,0.6787,0.6704,0.0503,-80.12,18.29,-24.45
484,2228802628,0.6484,0.6646,0.0596,-86.77,20.43,-26.04
485,2228807631,0.6436,0.6694,0.0156,-93.54,22.26,-27.50
486,2228812711,0.6626,0.6782,0.0493,-100.37,24.21,-28.84
487,2228817629,0.6348,0.7007,0.1636,-107.68,25.61,-30.00
488,2228822629,0.4893,1.0381,0.5996,-116.52,27.93,-31.10
489,2228827628,0.5752,0.8853,0.3252,-125.18,29.63,-31.89
490,2228832630,0.5249,0.8579,0.1968,-131.40,29.15,-31.16
491,2228837629,0.5181,0.7202,0.4492,-136.71,30.06,-30.30
492,2228842629,0.5283,0.6323,0.6045,-140.67,32.01,-28.66
493,2228847628,0.5273,0.7368,0.4712,-143.29,32.99,-26.95
494,2228852629,0.5625,0.8335,0.4399,-145.61,32.74,-25.37
495,2228857629,0.5894,0.8188,0.6328,-145.61,33.29,-22.56
496,2228862627,0.6357,0.8403,0.6436,-143.48,34.21,-19.51
497,2228867628,0.7471,0.8315,0.4932,-141.95,33.29,-16.95
498,2228872629,0.8218,0.7725,0.5776,-141.34,31.77,-14.82
499,2228877628,0.8218,0.6982,0.7642,-141.34,30.91,-13.11
500,2228882630,0.7939,0.6401,0.7500,-142.38,29.63,-12.01
501,2228887628,0.7539,0.6343,0.6982,-144.33,27.56,-11.65
502,2228892627,0.6943,0.6743,0.7632,-146.28,25.85,-12.32
503,2228897627,0.6382,0.7451,0.7202,-147.38,25.06,-13.41
504,2228902690,0.5264,0.8398,0.5625,-146.71,24.21,-14.76
505,2228907628,0.4883,0.9136,0.4688,-143.05,23.11,-16.16
506,2228912629,0.5020,0.8867,0.5195,-137.26,23.29,-16.77
507,2228917629,0.5591,0.8550,0.5112,-129.45,24.02,-16.16
508,2228922628,0.6021,0.9863,0.3706,-122.26,23.48,-16.10
509,2228927629,0.6558,0.8979,0.5063,-117.01,22.80,-16.10
510,2228932627,0.6865,0.9307,0.7305,-114.33,23.17,-16.22
511,2228937631,0.7461,0.6631,0.8252,-114.57,23.54,-16.40
512,2228942628,0.7974,0.5044,0.8623,-116.04,23.41,-14.39
513,2228947629,0.7974,0.5225,0.9258,-118.11,23.23,-11.28
514,2228952628,0.7573,0.6230,1.0146,-120.49,23.48,-8.35
515,2228957629,0.7432,0.6978,0.9336,-122.50,23.78,-5.61
516,2228962627,0.7153,0.7783,0.9019,-123.54,23.72,-3.35
517,2228967627,0.7158,0.7993,0.8789,-122.74,23.60,-1.10
518,2228972629,0.7559,0.7671,0.8901,-120.49,23.29,1.46
519,2228978049,0.8398,0.7144,0.9253,-115.49,22.56,4.39
520,2228982629,0.8623,0.6577,1.0229,-107.32,21.65,7.87
521,2228987629,0.8521,0.6714,0.9736,-95.85,20.73,11.59
522,2228992629,0.8062,0.7065,0.8872,-82.07,19.09,15.06
523,2228997628,0.7334,0.7476,0.8472,-68.11,17.26,17.99
524,2229002629,0.6738,0.7637,0.8599,-55.43,15.55,20.61
525,2229007629,0.6299,0.7627,0.8672,-45.12,14.27,22.80
526,2229012998,0.5967,0.7437,0.8765,-37.74,12.87,24.88
527,2229017629,0.5903,0.7251,0.8848,-33.11,11.34,26.83
528,2229022628,0.5947,0.7075,0.9141,-30.91,9.76,29.02
529,2229027627,0.6113,0.6909,0.9204,-30.98,8.11,31.04
530,2229032628,0.6450,0.6665,0.9404,-32.74,6.10,33.17
531,2229037630,0.6655,0.6553,0.9443,-36.10,3.84,35.30
532,2229042732,0.6851,0.6719,0.9150,-40.43,0.91,37.38
533,2229047627,0.6934,0.7080,0.8950,-45.30,-2.07,39.39
534,2229052631,0.7197,0.7378,0.8662,-51.95,-6.40,41.34
535,2229057629,0.7466,0.7344,0.8442,-56.83,-9.45,42.44
536,2229062628,0.8096,0.7070,0.8081,-63.72,-13.48,43.54
537,2229067627,0.8833,0.5137,0.8291,-71.89,-17.74,44.02
538,2229072627,0.8896,0.4111,0.8755,-80.24,-21.83,44.15
539,2229077629,0.8140,0.4009,0.9648,-88.05,-25.49,42.93
540,2229082629,0.7798,0.5137,1.0361,-95.12,-29.27,40.12
541,2229087630,0.7124,0.4741,1.0933,-103.05,-32.56,34.27
542,2229092628,0.6147,0.4053,1.1494,-108.96,-35.12,29.02
543,2229097629,0.5415,0.3345,1.1045,-111.59,-37.68,25.00
544,2229102628,0.5015,0.3237,1.0522,-111.22,-40.49,22.07
545,2229107627,0.4927,0.3535,1.0142,-107.87,-43.35,20.43
546,2229112627,0.5132,0.3882,0.9692,-102.80,-46.46,19.39
547,2229117708,0.5737,0.4229,0.9712,-96.59,-49.51,18.78
548,2229122631,0.6377,0.4341,0.9927,-89.88,-52.38,18.35
549,2229127628,0.7139,0.4268,0.9961,-83.17,-55.00,17.87
550,2229132627,0.7607,0.4717,0.9575,-76.71,-57.50,17.07
551,2229137627,0.7769,0.5234,0.9277,-70.06,-60.12,15.73
552,2229142630,0.7803,0.5186,0.9663,-62.38,-62.20,13.66
553,2229147631,0.7705,0.4434,0.9722,-54.09,-63.72,11.89
554,2229152642,0.7383,0.4160,0.9438,-45.55,-65.24,11.04
555,2229157627,0.7188,0.4277,0.9233,-37.80,-66.95,10.61
556,2229162627,0.7153,0.4321,0.9175,-30.67,-68.41,10.30
557,2229167627,0.7095,0.4409,0.9121,-24.21,-69.76,10.30
558,2229172627,0.7046,0.4561,0.8936,-18.35,-70.98,10.43
559,2229177985,0.7148,0.4585,0.9185,-13.54,-71.77,10.61
560,2229182629,0.7266,0.4604,0.9185,-9.39,-72.01,10.85
561,2229187630,0.7275,0.4678,0.9072,-5.98,-72.07,11.22
562,2229192628,0.7183,0.4570,0.8857,-2.93,-72.01,11.71
563,2229197630,0.7324,0.4521,0.8496,-0.43,-71.95,12.32
564,2229202629,0.7598,0.4648,0.8389,1.16,-72.01,13.11
565,2229207629,0.7920,0.4707,0.8467,1.95,-72.01,13.84
566,2229212629,0.7925,0.4634,0.8408,1.59,-72.13,14.57
567,2229217628,0.7842,0.4678,0.8291,-0.43,-72.26,15.37
568,2229222629,0.7632,0.4805,0.8091,-3.35,-72.32,16.22
569,2229227683,0.7383,0.4946,0.7900,-7.50,-72.50,16.95
570,2229232630,0.7227,0.4893,0.7734,-12.38,-72.44,17.56
571,2229237628,0.7280,0.4741,0.7554,-17.74,-72.56,18.29
572,2229242628,0.7397,0.4619,0.7441,-23.35,-72.56,18.90
573,2229247627,0.7588,0.4414,0.7397,-28.84,-72.68,19.45
574,2229252627,0.7690,0.4341,0.7397,-33.84,-72.56,20.00
575,2229257627,0.7812,0.4292,0.7378,-38.41,-72.38,20.30
576,2229262627,0.7744,0.4268,0.7388,-42.07,-72.32,20.73
577,2229267629,0.7603,0.4282,0.7422,-45.18,-71.89,20.98
578,2229272628,0.7583,0.4326,0.7485,-47.74,-71.40,21.28
579,2229277629,0.7607,0.4390,0.7388,-49.94,-70.91,21.71
580,2229282628,0.7520,0.4336,0.7319,-52.07,-70.18,22.13
581,2229287629,0.7427,0.4365,0.7378,-54.33,-69.70,22.62
582,2229292628,0.7700,0.4326,0.7363,-57.01,-69.09,22.99
583,2229297629,0.7842,0.4395,0.7012,-59.15,-68.41,23.29
584,2229302628,0.7744,0.4355,0.6899,-60.79,-67.99,23.72
585,2229307627,0.7759,0.4399,0.7134,-62.01,-67.13,23.90
586,2229312629,0.7891,0.4380,0.7109,-62.80,-66.65,24.39
587,2229317629,0.7920,0.4360,0.7134,-63.35,-66.22,24.70
588,2229322628,0.7812,0.4336,0.7280,-63.66,-66.04,25.12
589,2229327627,0.7637,0.4243,0.7363,-63.72,-66.16,25.67
590,2229332627,0.7573,0.4307,0.7334,-63.66,-66.10,26.10
591,2229337627,0.7617,0.4302,0.7588,-63.41,-66.28,26.71
592,2229342629,0.7822,0.4307,0.7412,-63.41,-66.28,27.32
593,2229347629,0.8022,0.4443,0.7168,-63.35,-66.52,27.80
594,2229352628,0.8076,0.4668,0.7139,-63.35,-66.52,28.41
595,2229357629,0.8057,0.4688,0.6904,-63.84,-66.40,29.09
596,2229362629,0.8188,0.4717,0.6763,-64.57,-66.28,29.70
597,2229367628,0.8125,0.4648,0.6733,-65.98,-65.98,30.37
598,2229372629,0.8037,0.4629,0.6519,-68.17,-65.61,30.91
599,2229377629,0.7988,0.4570,0.6313,-71.16,-65.37,31.46
600,2229382629,0.7954,0.4478,0.6162,-74.57,-64.88,31.95
601,2229387628,0.7891,0.4346,0.5977,-78.35,-64.45,32.38
602,2229392629,0.7925,0.4243,0.5889,-81.77,-64.27,32.62
603,2229397629,0.7949,0.4053,0.5684,-84.39,-63.66,32.80
604,2229402629,0.7993,0.3916,0.5684,-85.85,-63.11,32.74
605,2229407627,0.8062,0.3779,0.5688,-86.28,-62.13,32.68
606,2229412629,0.8032,0.3716,0.5659,-85.49,-61.71,32.62
607,2229418143,0.8110,0.3647,0.5532,-83.41,-60.55,32.13
608,2229422629,0.8154,0.3589,0.5488,-81.46,-59.88,31.95
609,2229427629,0.8101,0.3496,0.5527,-78.90,-58.90,31.83
610,2229432629,0.8076,0.3418,0.5557,-76.22,-57.93,31.65
611,2229437628,0.8066,0.3408,0.5503,-74.09,-56.89,31.46
612,2229442629,0.8086,0.3369,0.5615,-72.62,-55.98,31.52
613,2229447629,0.7998,0.3252,0.5732,-72.07,-54.88,31.52
614,2229452629,0.8228,0.3306,0.5366,-73.29,-53.96,31.28
615,2229457629,0.8257,0.3140,0.5669,-75.98,-53.29,30.85
616,2229462628,0.8247,0.3042,0.5649,-79.27,-52.44,30.49
617,2229467627,0.8257,0.3164,0.5366,-82.56,-51.59,30.30
618,2229472629,0.8340,0.3281,0.5259,-85.49,-50.79,30.00
619,2229477628,0.8364,0.3384,0.5439,-87.93,-49.94,29.70
620,2229482627,0.8359,0.3291,0.5356,-89.76,-49.02,29.39
621,2229487627,0.8291,0.3140,0.5371,-90.85,-48.41,29.21
622,2229492627,0.8076,0.2949,0.5918,-92.07,-47.87,28.90
623,2229497627,0.8501,0.2642,0.6035,-93.66,-47.32,28.48
624,2229502629,0.8618,0.2642,0.5293,-94.27,-46.77,27.93
625,2229507629,0.8638,0.2632,0.5366,-93.72,-46.34,27.32
626,2229512629,0.8501,0.2505,0.5898,-92.68,-45.49,26.77
627,2229517628,0.8706,0.2407,0.5645,-92.32,-44.82,26.16
628,2229522629,0.8687,0.2363,0.5391,-92.38,-44.39,25.55
629,2229527629,0.8574,0.2241,0.5806,-92.93,-43.84,25.12
630,2229532629,0.8574,0.2144,0.5811,-93.72,-43.41,24.57
631,2229537628,0.8579,0.1963,0.5674,-94.63,-42.93,24.27
632,2229542630,0.8628,0.1865,0.5894,-95.79,-42.44,23.78
633,2229547628,0.8604,0.1743,0.5962,-96.95,-42.01,23.29
634,2229552631,0.8555,0.1616,0.5830,-98.60,-41.40,22.74
635,2229557628,0.8560,0.1484,0.5903,-100.55,-40.98,22.20
636,2229562629,0.8687,0.1362,0.6055,-102.93,-40.30,21.28
637,2229567628,0.8682,0.1240,0.6021,-105.67,-39.82,20.43
638,2229572723,0.8638,0.1230,0.5962,-108.54,-39.33,19.45
639,2229577629,0.8521,0.1260,0.6035,-111.28,-38.72,18.29
640,2229582629,0.8477,0.1333,0.5981,-114.09,-38.35,17.50
641,2229587629,0.8564,0.1313,0.5874,-116.46,-37.87,16.65
642,2229592628,0.8477,0.1523,0.5889,-118.48,-37.62,15.73
643,2229597630,0.8472,0.1592,0.5854,-120.00,-37.20,15.06
644,2229602628,0.8496,0.1704,0.5723,-121.40,-37.01,14.70
645,2229607629,0.8481,0.1836,0.5635,-122.74,-36.77,14.27
646,2229612628,0.8394,0.1890,0.5537,-124.02,-36.52,14.15
647,2229617629,0.8359,0.1870,0.5396,-125.00,-36.16,14.15
648,2229622628,0.8394,0.1929,0.5303,-125.67,-35.79,14.27
649,2229627629,0.8418,0.1899,0.5210,-126.16,-35.30,14.21
650,2229632628,0.8491,0.1958,0.5000,-126.28,-34.76,14.21
651,2229637629,0.8452,0.1982,0.4932,-126.28,-34.27,14.21
652,2229642629,0.8423,0.1968,0.4834,-125.85,-33.78,14.33
653,2229647629,0.8442,0.1992,0.4834,-125.55,-33.35,14.33
654,2229652628,0.8481,0.1948,0.4648,-125.12,-32.74,14.27
655,2229657629,0.8496,0.1919,0.4634,-124.82,-32.32,14.02
656,2229662628,0.8584,0.1997,0.4565,-124.76,-31.59,13.72
657,2229667629,0.8726,0.2056,0.4580,-125.12,-31.04,13.23
658,2229672628,0.8770,0.2026,0.4478,-126.28,-30.37,12.62
659,2229677629,0.8799,0.2104,0.4346,-127.87,-29.76,12.07
660,2229682628,0.8799,0.2217,0.4355,-129.82,-29.51,11.34
661,2229687629,0.8857,0.2261,0.4316,-131.52,-28.96,10.55
662,2229692628,0.8887,0.2256,0.4229,-132.93,-28.66,9.94
663,2229697629,0.8887,0.2290,0.4121,-133.66,-28.48,9.33
664,2229702628,0.9004,0.2295,0.4141,-133.78,-28.35,8.72
665,2229707629,0.9019,0.2266,0.4023,-133.29,-28.11,8.11
666,2229712628,0.9058,0.2285,0.3955,-132.32,-27.93,7.50
667,2229717629,0.9092,0.2271,0.3774,-131.10,-27.99,6.71
668,2229722628,0.9097,0.2163,0.3652,-129.76,-27.99,5.85
669,2229727629,0.9038,0.2095,0.3574,-128.17,-28.23,4.94
670,2229732628,0.9067,0.2061,0.3521,-126.34,-28.41,3.96
671,2229737629,0.9087,0.2031,0.3452,-124.21,-28.66,2.99
672,2229742628,0.9053,0.1992,0.3447,-121.77,-28.90,2.13
673,2229747631,0.8965,0.2021,0.3486,-119.39,-29.09,1.28
674,2229752628,0.8872,0.2036,0.3418,-117.32,-29.57,0.67
675,2229757631,0.8760,0.2021,0.3296,-115.73,-29.76,0.18
676,2229762629,0.8760,0.2065,0.3213,-114.57,-30.43,-0.18
677,2229767629,0.8701,0.2075,0.3179,-113.78,-30.85,-0.55
678,2229772629,0.8604,0.2095,0.3022,-113.60,-31.52,-0.73
679,2229777629,0.8574,0.2085,0.2949,-113.60,-32.13,-0.98
680,2229782628,0.8604,0.2080,0.2749,-113.66,-32.80,-1.28
681,2229787629,0.8643,0.2090,0.2764,-113.23,-33.54,-1.46
682,2229792628,0.8633,0.2017,0.2646,-112.32,-34.02,-1.65
683,2229797629,0.8760,0.2061,0.2588,-111.16,-34.70,-2.01
684,2229802628,0.8857,0.2109,0.2588,-109.94,-35.18,-2.38
685,2229807629,0.8716,0.2090,0.2520,-108.54,-35.98,-2.68
686,2229812628,0.8687,0.2168,0.2466,-107.26,-36.65,-2.93
687,2229817629,0.8735,0.2212,0.2407,-106.16,-37.62,-3.23
688,2229822628,0.8809,0.2202,0.2344,-104.45,-38.66,-3.48
689,2229827629,0.8877,0.2095,0.2314,-102.07,-39.45,-3.72
690,2229832628,0.8950,0.2026,0.2222,-99.15,-40.37,-3.96
691,2229837629,0.8931,0.1968,0.2148,-96.22,-41.34,-4.27
692,2229842628,0.8984,0.1953,0.2021,-93.29,-42.20,-4.57
693,2229848021,0.9062,0.1919,0.1963,-90.12,-43.29,-5.00
694,2229852629,0.9058,0.1851,0.1963,-88.05,-44.02,-5.24
695,2229857629,0.8975,0.1919,0.1855,-85.98,-44.94,-5.61
696,2229862629,0.8994,0.1836,0.1782,-84.15,-46.10,-6.04
697,2229867628,0.9014,0.1807,0.1646,-82.56,-47.13,-6.40
698,2229872629,0.8945,0.1777,0.1646,-81.04,-48.17,-6.71
699,2229877628,0.8940,0.1680,0.1528,-79.45,-49.15,-6.95
700,2229882629,0.8901,0.1592,0.1382,-78.11,-50.12,-7.26
701,2229887629,0.8975,0.1504,0.1274,-76.65,-51.10,-7.62
702,2229892629,0.8960,0.1421,0.1187,-75.06,-51.77,-7.93
703,2229897628,0.9019,0.1323,0.1133,-73.23,-52.44,-8.48
704,2229902629,0.8994,0.1226,0.0991,-71.16,-52.87,-9.02
705,2229907629,0.9014,0.1152,0.0913,-69.09,-53.48,-9.70
706,2229912629,0.9014,0.1143,0.0796,-67.01,-53.90,-10.37
707,2229917628,0.8999,0.1079,0.0801,-64.94,-54.21,-11.22
708,2229922629,0.8901,0.1064,0.0703,-62.99,-54.76,-11.89
709,2229927629,0.8911,0.1050,0.0566,-61.22,-55.18,-12.62
710,2229932629,0.8857,0.1104,0.0547,-59.88,-55.73,-13.48
711,2229937628,0.8779,0.1084,0.0479,-58.78,-56.10,-14.09
712,2229942629,0.8721,0.1108,0.0425,-57.87,-56.65,-14.76
713,2229947629,0.8755,0.1123,0.0371,-57.26,-56.95,-15.37
714,2229952629,0.8740,0.1050,0.0259,-56.34,-57.50,-16.04
715,2229957628,0.8789,0.1035,0.0181,-55.30,-57.93,-16.71
716,2229962629,0.8872,0.0938,0.0142,-53.60,-58.48,-17.44
717,2229967629,0.8887,0.0942,0.0103,-51.34,-58.72,-18.17
718,2229972629,0.8896,0.0903,0.0029,-48.60,-58.90,-18.90
719,2229977628,0.8867,0.0898,-0.0117,-45.73,-59.15,-19.63
720,2229982629,0.8813,0.0874,-0.0098,-42.26,-59.27,-20.24
721,2229987629,0.8799,0.0869,-0.0142,-38.90,-59.51,-20.85
722,2229992629,0.8750,0.0869,-0.0181,-35.98,-59.57,-21.46
723,2229997628,0.8750,0.0894,-0.0142,-33.78,-59.94,-21.83
724,2230002629,0.8696,0.0947,-0.0156,-32.87,-60.06,-22.26
725,2230007629,0.8652,0.0977,-0.0181,-33.05,-60.37,-22.68
726,2230012629,0.8574,0.0981,-0.0127,-34.02,-60.85,-22.93
727,2230017628,0.8486,0.1099,-0.0156,-35.37,-61.28,-23.29
728,2230022629,0.8403,0.1094,-0.0234,-36.28,-61.77,-23.66
729,2230027629,0.8389,0.1099,-0.0342,-36.95,-62.13,-24.02
730,2230032629,0.8486,0.1060,-0.0352,-36.40,-62.56,-24.33
731,2230037628,0.8511,0.1045,-0.0474,-34.82,-62.99,-24.76
732,2230042629,0.8530,0.0962,-0.0581,-32.56,-63.41,-25.12
733,2230047629,0.8721,0.0986,-0.0679,-29.82,-63.60,-25.73
734,2230052629,0.8784,0.0977,-0.0791,-27.07,-63.84,-26.34
735,2230057628,0.8823,0.0952,-0.0908,-24.45,-63.84,-27.20
736,2230062629,0.8853,0.0923,-0.0942,-22.44,-63.96,-27.87
737,2230067629,0.8857,0.0938,-0.1069,-20.85,-63.90,-28.41
738,2230072629,0.8940,0.0972,-0.1201,-19.70,-63.84,-29.27
739,2230077628,0.8950,0.1035,-0.1191,-18.84,-63.72,-29.94
740,2230082629,0.8955,0.1055,-0.1274,-17.99,-63.66,-30.49
741,2230087629,0.8887,0.1133,-0.1318,-16.89,-63.29,-30.98
742,2230092628,0.8877,0.1211,-0.1284,-15.55,-63.05,-31.40
743,2230097629,0.8838,0.1230,-0.1396,-14.02,-62.68,-31.46
744,2230102628,0.8721,0.1255,-0.1392,-12.56,-62.32,-31.52
745,2230107629,0.8706,0.1270,-0.1479,-11.40,-62.07,-31.52
746,2230112628,0.8628,0.1216,-0.1572,-10.67,-61.89,-31.34
747,2230117629,0.8623,0.1230,-0.1685,-10.06,-61.40,-31.16
748,2230122629,0.8745,0.1235,-0.1709,-9.45,-61.16,-31.10
749,2230127629,0.8740,0.1274,-0.1899,-9.21,-60.67,-31.04
750,2230132628,0.8618,0.1230,-0.2046,-8.96,-60.30,-30.85
751,2230137629,0.8604,0.1240,-0.2217,-9.02,-59.82,-30.79
752,2230142628,0.8789,0.1377,-0.2280,-8.54,-59.27,-30.79
753,2230147629,0.8911,0.1504,-0.2324,-7.80,-58.66,-30.91
754,2230152628,0.8833,0.1567,-0.2344,-6.77,-57.93,-30.91
755,2230157631,0.8774,0.1650,-0.2446,-5.61,-57.38,-30.91
756,2230162628,0.8789,0.1724,-0.2476,-4.39,-56.65,-30.79
757,2230167629,0.8735,0.1753,-0.2510,-2.80,-55.91,-30.67
758,2230172627,0.8828,0.1777,-0.2549,-1.10,-55.30,-30.37
759,2230178096,0.8833,0.1816,-0.2637,1.10,-54.27,-30.06
760,2230182629,0.8853,0.1816,-0.2715,2.62,-53.66,-29.82
761,2230187629,0.8857,0.1787,-0.2734,4.45,-52.93,-29.45
762,2230192627,0.8921,0.1768,-0.2793,6.46,-51.89,-29.21
763,2230197632,0.8892,0.1729,-0.2817,7.99,-51.04,-28.90
764,2230202628,0.8862,0.1772,-0.2949,9.15,-50.06,-28.72
765,2230207629,0.8979,0.1763,-0.2935,10.06,-49.15,-28.60
766,2230212628,0.9023,0.1772,-0.2988,10.49,-48.23,-28.60
767,2230217629,0.8965,0.1821,-0.3037,10.73,-47.38,-28.48
768,2230222628,0.9028,0.1802,-0.3052,10.73,-46.40,-28.48
769,2230227629,0.9023,0.1836,-0.3062,10.79,-45.43,-28.66
770,2230232628,0.8955,0.1816,-0.3105,10.67,-44.51,-28.48
771,2230237629,0.8989,0.1821,-0.3115,10.85,-43.41,-28.48
772,2230242628,0.8877,0.1787,-0.3140,11.10,-42.32,-28.48
773,2230247629,0.8882,0.1733,-0.3169,11.40,-41.40,-28.35
774,2230252628,0.8843,0.1724,-0.3232,12.07,-40.37,-28.23
775,2230257716,0.8760,0.1646,-0.3228,13.29,-39.21,-27.99
776,2230262627,0.8755,0.1606,-0.3208,14.82,-38.11,-27.93
777,2230267627,0.8843,0.1650,-0.3218,16.46,-36.77,-27.80
778,2230272629,0.8887,0.1670,-0.3271,17.56,-35.73,-27.87
779,2230277629,0.8882,0.1626,-0.3286,18.41,-34.51,-28.05
780,2230282629,0.8818,0.1709,-0.3252,18.96,-33.35,-28.17
781,2230287628,0.8784,0.1714,-0.3267,19.21,-32.32,-28.35
782,2230292629,0.8740,0.1733,-0.3223,19.02,-31.10,-28.60
783,2230297701,0.8770,0.1763,-0.3149,19.09,-30.18,-28.84
784,2230302629,0.8716,0.1816,-0.3105,18.84,-29.15,-28.96
785,2230307628,0.8643,0.1914,-0.3052,18.17,-28.41,-29.15
786,2230312629,0.8652,0.1958,-0.3086,17.13,-27.62,-29.09
787,2230317717,0.8589,0.1987,-0.3062,16.28,-26.89,-28.90
788,2230322629,0.8535,0.2104,-0.2993,15.98,-26.46,-28.60
789,2230327628,0.8477,0.2168,-0.3018,16.59,-26.04,-28.11
790,2230332629,0.8501,0.2183,-0.2900,17.80,-25.67,-27.74
791,2230337629,0.8516,0.2217,-0.2896,19.45,-25.30,-27.20
792,2230342629,0.8589,0.2109,-0.2979,20.91,-24.94,-26.83
793,2230347649,0.8745,0.2144,-0.2925,22.87,-24.57,-26.52
794,2230352629,0.8794,0.2212,-0.2900,24.63,-24.33,-26.52
795,2230357629,0.8809,0.2173,-0.3013,26.28,-23.90,-26.52
796,2230362630,0.8755,0.2202,-0.3066,27.26,-23.66,-26.71
797,2230367627,0.8813,0.2236,-0.3022,27.62,-23.35,-26.83
798,2230372628,0.8936,0.2324,-0.3062,27.93,-23.11,-27.20
799,2230377629,0.8804,0.2349,-0.2988,27.80,-22.74,-27.38
800,2230382628,0.8687,0.2437,-0.2969,27.26,-22.80,-27.38
801,2230387627,0.8706,0.2441,-0.2988,26.46,-22.74,-27.32
802,2230392629,0.8877,0.2578,-0.2852,25.98,-22.62,-27.01
803,2230397629,0.8984,0.2617,-0.2876,25.91,-22.38,-26.89
804,2230402628,0.8994,0.2676,-0.2891,26.28,-22.20,-26.77
805,2230407629,0.9106,0.2676,-0.2949,26.77,-22.20,-26.52
806,2230412628,0.9180,0.2632,-0.2993,27.99,-22.20,-26.40
807,2230417630,0.9321,0.2637,-0.3037,29.63,-22.07,-26.34
808,2230422628,0.9312,0.2559,-0.3105,31.71,-21.89,-26.34
809,2230427718,0.9268,0.2563,-0.3232,33.35,-21.71,-26.52
810,2230432628,0.9282,0.2642,-0.3320,35.00,-21.65,-26.77
811,2230437629,0.9341,0.2651,-0.3340,36.34,-21.34,-26.95
812,2230442628,0.9268,0.2695,-0.3354,37.56,-20.91,-27.32
813,2230447629,0.9170,0.2744,-0.3379,38.66,-20.73,-27.50
814,2230452628,0.9072,0.2812,-0.3330,39.70,-20.55,-27.62
815,2230457629,0.9004,0.2847,-0.3271,41.10,-20.43,-27.74
816,2230462628,0.9053,0.2871,-0.3276,42.68,-20.12,-27.87
817,2230467629,0.9004,0.2930,-0.3203,44.15,-20.00,-27.87
818,2230472628,0.8862,0.2886,-0.3213,45.43,-19.88,-27.74
819,2230477629,0.8701,0.2842,-0.3271,46.28,-19.76,-27.56
820,2230482628,0.8662,0.2793,-0.3252,46.65,-19.51,-27.38
821,2230487629,0.8643,0.2734,-0.3271,46.59,-19.21,-27.13
822,2230492629,0.8589,0.2656,-0.3311,46.16,-18.84,-27.07
823,2230497629,0.8701,0.2642,-0.3398,45.24,-18.35,-26.71
824,2230502628,0.8760,0.2568,-0.3403,44.09,-17.80,-26.59
825,2230507629,0.8828,0.2583,-0.3442,43.05,-16.83,-26.46
826,2230512628,0.8755,0.2578,-0.3457,42.13,-15.98,-26.22
827,2230517629,0.8735,0.2617,-0.3438,41.83,-14.94,-25.79
828,2230522628,0.8716,0.2666,-0.3457,42.44,-13.72,-25.06
829,2230527629,0.8667,0.2646,-0.3403,43.17,-12.80,-24.39
830,2230532628,0.8633,0.2715,-0.3428,44.33,-11.59,-23.60
831,2230537629,0.8481,0.2729,-0.3506,45.18,-10.37,-22.80
832,2230542628,0.8472,0.2749,-0.3545,45.73,-9.45,-22.01
833,2230547629,0.8477,0.2773,-0.3623,45.43,-8.35,-21.40
834,2230552628,0.8540,0.2861,-0.3687,44.45,-7.38,-20.91
835,2230557629,0.8486,0.2910,-0.3809,43.54,-6.52,-20.61
836,2230562629,0.8491,0.2944,-0.3921,42.99,-5.67,-20.30
837,2230567629,0.8589,0.2891,-0.3950,43.35,-4.88,-20.24
838,2230572629,0.8701,0.2959,-0.3896,44.63,-4.02,-20.43
839,2230577627,0.8750,0.2930,-0.3989,46.34,-2.99,-20.61
840,2230582629,0.8716,0.2842,-0.3975,47.99,-2.26,-20.98
841,2230587629,0.8789,0.2754,-0.4004,49.39,-1.16,-21.34
842,2230592630,0.9014,0.2666,-0.4009,50.37,-0.18,-21.95
843,2230597629,0.9312,0.2607,-0.3921,51.04,0.98,-22.74
844,2230602628,0.9214,0.2554,-0.3872,51.22,2.01,-23.72
845,2230607627,0.9038,0.2397,-0.3926,50.85,3.35,-24.57
846,2230612629,0.9092,0.2373,-0.3872,50.24,4.51,-25.49
847,2230617628,0.9209,0.2402,-0.3818,49.88,5.67,-26.52
848,2230622630,0.9282,0.2485,-0.3750,50.18,7.01,-27.56
849,2230627629,0.9150,0.2485,-0.3843,50.73,7.93,-28.60
850,2230632628,0.9131,0.2607,-0.3667,51.77,8.90,-29.45
851,2230637629,0.9160,0.2808,-0.3594,53.29,9.88,-30.18
852,2230642628,0.9087,0.2939,-0.3462,54.88,10.67,-30.98
853,2230647627,0.8926,0.2998,-0.3413,56.46,11.28,-31.34
854,2230652629,0.8770,0.3052,-0.3247,57.68,11.65,-31.71
855,2230657629,0.8711,0.3081,-0.3105,59.09,12.13,-31.65
856,2230662629,0.8496,0.3135,-0.2993,60.55,12.38,-31.52
857,2230667630,0.8345,0.3120,-0.2905,62.13,12.62,-31.22
858,2230672631,0.8296,0.3110,-0.2886,63.35,12.80,-31.04
859,2230677629,0.8384,0.3071,-0.2788,64.27,12.99,-30.79
860,2230682629,0.8613,0.3135,-0.2686,65.00,13.11,-30.91
861,2230687629,0.8628,0.3159,-0.2695,65.24,13.41,-31.28
862,2230692629,0.8613,0.3135,-0.2651,64.76,13.54,-31.83
863,2230697629,0.8633,0.3184,-0.2642,63.60,13.41,-32.56
864,2230702628,0.8535,0.3203,-0.2612,62.20,13.41,-33.35
865,2230707629,0.8374,0.3164,-0.2598,61.40,13.17,-34.02
866,2230712628,0.8252,0.3154,-0.2637,61.16,13.11,-34.51
867,2230717629,0.8081,0.3135,-0.2705,61.52,12.93,-35.12
868,2230722628,0.8022,0.3086,-0.2744,62.56,12.74,-35.73
869,2230727629,0.7876,0.2900,-0.2754,64.51,12.68,-36.59
870,2230732630,0.7759,0.2778,-0.2759,66.16,12.93,-37.13
871,2230737629,0.7793,0.2666,-0.2690,67.68,13.35,-37.87
872,2230742628,0.7754,0.2539,-0.2773,68.54,13.84,-38.54
873,2230747627,0.7593,0.2476,-0.2842,68.29,14.39,-39.45
874,2230752629,0.7505,0.2397,-0.2793,66.52,15.24,-40.61
875,2230757629,0.7554,0.2324,-0.2710,65.00,15.85,-41.28
876,2230762628,0.7573,0.2363,-0.2549,63.23,16.77,-42.26
877,2230767629,0.7446,0.2432,-0.2559,61.46,17.74,-42.93
878,2230772628,0.7314,0.2471,-0.2607,60.06,18.29,-43.66
879,2230777688,0.7188,0.2578,-0.2573,58.66,19.02,-44.57
880,2230782836,0.7007,0.2529,-0.2534,58.11,19.45,-45.30
881,2230787629,0.6782,0.2544,-0.2632,57.56,19.70,-45.91
882,2230792628,0.6475,0.2490,-0.2686,56.52,19.70,-46.77
883,2230797629,0.6216,0.2534,-0.2705,55.06,19.63,-47.74
884,2230802629,0.6021,0.2534,-0.2778,53.48,19.57,-48.84
885,2230807629,0.5815,0.2573,-0.2954,52.01,19.33,-50.06
886,2230812628,0.5532,0.2622,-0.2979,51.28,19.15,-51.34
887,2230817629,0.5532,0.2666,-0.3003,51.71,18.96,-52.44
888,2230822628,0.5562,0.2729,-0.3071,53.05,19.09,-53.54
889,2230827630,0.5635,0.2754,-0.3110,55.12,19.21,-54.88
890,2230832628,0.5801,0.2783,-0.3242,57.13,19.57,-56.28
891,2230837917,0.5869,0.2778,-0.3398,58.84,20.00,-58.48
892,2230842629,0.5967,0.2793,-0.3506,59.76,20.18,-60.18
893,2230847628,0.6016,0.2715,-0.3770,61.16,20.49,-62.56
894,2230852627,0.6025,0.2598,-0.4067,62.38,20.79,-65.37
895,2230857629,0.5840,0.2549,-0.4380,62.80,20.91,-68.60
896,2230862628,0.5542,0.2578,-0.4707,62.62,20.73,-72.26
897,2230867629,0.5303,0.2646,-0.4995,62.07,20.30,-76.34
898,2230872629,0.4731,0.2705,-0.5376,61.28,19.51,-80.43
899,2230877627,0.4219,0.2881,-0.5723,60.61,18.11,-84.76
900,2230882627,0.3774,0.3057,-0.6133,60.37,16.28,-89.15
901,2230887998,0.3423,0.3398,-0.6553,61.83,13.54,-94.76
902,2230892630,0.3271,0.3633,-0.6919,64.45,11.34,-98.78
903,2230897628,0.2954,0.3936,-0.7329,69.39,8.72,-103.96
904,2230902631,0.2720,0.4287,-0.7749,77.80,5.24,-110.49
905,2230907629,0.2808,0.4546,-0.8052,85.24,2.93,-115.18
906,2230912629,0.2930,0.4902,-0.8296,96.71,0.43,-121.22
907,2230917629,0.2788,0.5166,-0.8560,109.45,-1.71,-127.50
908,2230922628,0.2500,0.5332,-0.8848,121.77,-3.54,-133.84
909,2230927630,0.2095,0.5552,-0.9233,131.83,-4.94,-140.24
910,2230932628,0.1753,0.5747,-0.9473,139.09,-6.28,-146.59
911,2230937629,0.1597,0.5981,-0.9609,145.12,-6.89,-152.74
912,2230942628,0.1421,0.6323,-0.9517,150.61,-6.65,-158.60
913,2230947629,0.1333,0.6689,-0.9683,155.24,-5.85,-164.21
914,2230952629,0.1494,0.7163,-0.9829,158.54,-4.51,-169.51
915,2230957629,0.1895,0.7754,-0.9917,159.57,-2.13,-174.63
916,2230962628,0.2505,0.8540,-0.9917,158.48,1.04,-179.82
917,2230967629,0.3066,0.9282,-1.0200,155.79,4.82,-185.06
918,2230972628,0.3530,0.9951,-1.0376,152.62,8.90,-190.12
919,2230977629,0.4248,1.0693,-1.0293,151.52,13.72,-194.94
920,2230982628,0.5107,1.1470,-1.0073,153.72,19.27,-199.51
921,2230987629,0.5664,1.2158,-0.9922,158.60,25.06,-203.78
922,2230992628,0.5986,1.2744,-0.9590,165.30,30.73,-207.68
923,2230997629,0.6362,1.3462,-0.9102,173.11,36.40,-211.10
924,2231002627,0.6353,1.3853,-0.8628,180.61,41.89,-214.02
925,2231007629,0.5903,1.4351,-0.8105,186.89,46.83,-215.91
926,2231012628,0.5752,1.4888,-0.7441,191.59,51.34,-216.83
927,2231017629,0.5381,1.5410,-0.6777,194.33,55.79,-216.89
928,2231022628,0.4858,1.5938,-0.6309,194.76,60.18,-215.61
929,2231027629,0.4746,1.6553,-0.5693,193.17,64.02,-213.11
930,2231032628,0.4722,1.7046,-0.5010,190.49,67.99,-209.51
931,2231037629,0.4585,1.7466,-0.4512,187.13,72.07,-204.82
932,2231042628,0.4546,1.7705,-0.3989,183.11,76.16,-199.09
933,2231047629,0.4507,1.7764,-0.3447,178.23,80.12,-192.44
934,2231052628,0.4575,1.7827,-0.2925,172.80,83.60,-185.30
935,2231057629,0.4912,1.7598,-0.2285,167.20,87.56,-177.99
936,2231062628,0.5020,1.7007,-0.1836,160.79,92.26,-170.79
937,2231067629,0.5352,1.6260,-0.1089,154.21,96.59,-163.54
938,2231072629,0.5879,1.5684,-0.0273,147.50,100.67,-156.71
939,2231077627,0.6616,1.5293,0.0376,139.63,104.88,-150.61
940,2231082627,0.6714,1.4766,0.0732,129.70,108.48,-145.18
941,2231087627,0.6738,1.4409,0.1055,118.11,111.22,-140.12
942,2231092629,0.7412,1.4404,0.1533,107.99,113.17,-135.61
943,2231097629,0.8013,1.4600,0.1885,101.83,114.76,-131.83
944,2231102628,0.7524,1.4731,0.1924,100.30,115.43,-127.87
945,2231108074,0.7334,1.5029,0.1807,103.90,115.06,-122.93
946,2231112630,0.7524,1.5254,0.1885,109.27,114.27,-119.76
947,2231117629,0.7979,1.5322,0.2153,117.80,113.17,-115.79
948,2231122630,0.8159,1.5205,0.2510,125.91,111.83,-111.65
949,2231127628,0.8101,1.5005,0.2720,131.46,110.24,-107.20
950,2231132629,0.8320,1.4673,0.2983,133.23,108.54,-102.50
951,2231137629,0.8423,1.4199,0.3374,130.43,106.65,-97.62
952,2231142629,0.8208,1.3647,0.3716,124.88,104.88,-92.56
953,2231147628,0.8169,1.3159,0.3784,116.59,102.93,-87.20
954,2231152629,0.7783,1.2568,0.3857,108.23,100.61,-81.89
955,2231157629,0.7051,1.1968,0.3594,100.98,97.74,-76.59
956,2231162629,0.6816,1.1445,0.3262,95.30,94.33,-71.83
957,2231167628,0.7046,1.1226,0.2891,91.34,90.49,-67.87
958,2231172629,0.7354,1.0981,0.2466,88.78,86.59,-65.00
959,2231177628,0.7588,1.0679,0.1812,87.26,84.70,-62.99
960,2231182629,0.8281,1.0459,0.1147,86.83,81.22,-61.65
961,2231187629,0.9131,1.0068,0.1123,89.76,78.90,-60.79
962,2231192628,0.9917,0.9702,0.1265,97.07,77.62,-60.06
963,2231197632,1.0605,0.9282,0.1489,107.07,77.32,-59.33
964,2231202629,1.1074,0.9009,0.1587,116.16,77.56,-58.23
965,2231208150,1.0952,0.8794,0.1782,121.59,77.62,-56.59
966,2231212629,1.0610,0.8818,0.1948,120.30,77.38,-55.43
967,2231217630,0.9956,0.8877,0.2065,114.02,76.46,-53.72
968,2231222629,0.9146,0.9004,0.2129,103.78,74.94,-51.83
969,2231227628,0.8555,0.8984,0.2051,92.32,72.38,-49.82
970,2231232629,0.8101,0.9160,0.2056,82.44,69.02,-47.74
971,2231237629,0.7598,0.9263,0.1963,75.73,65.30,-45.55
972,2231242629,0.7026,0.9141,0.1528,72.38,61.34,-43.48
973,2231247628,0.6685,0.9131,0.1104,71.52,57.13,-41.16
974,2231252629,0.6675,0.9014,0.0732,72.99,52.80,-39.02
975,2231257629,0.6875,0.8901,0.0435,76.65,49.15,-37.07
976,2231262629,0.7280,0.8726,0.0229,81.89,46.28,-35.43
977,2231267628,0.7612,0.8521,0.0049,87.93,44.09,-33.78
978,2231272629,0.7974,0.8364,-0.0039,93.35,42.44,-32.13
979,2231277629,0.8921,0.7920,-0.0137,97.32,41.34,-30.55
980,2231282629,0.9839,0.7700,0.0200,99.27,41.16,-29.15
981,2231287628,1.0298,0.7339,0.0483,98.66,41.71,-27.56
982,2231292629,1.0518,0.7183,0.0503,94.57,42.44,-25.98
983,2231297629,1.0483,0.7314,0.0586,87.56,42.56,-24.57
984,2231302629,1.0000,0.7329,0.0527,78.96,42.44,-23.11
985,2231307628,0.9321,0.7471,0.0503,70.91,41.46,-21.52
986,2231312629,0.8633,0.7588,0.0581,64.82,39.82,-19.57
987,2231318045,0.7808,0.7603,0.0547,60.73,37.01,-16.77
988,2231322629,0.7427,0.7583,0.0376,59.39,35.00,-14.82
989,2231327629,0.7163,0.7568,0.0151,58.29,32.26,-12.56
990,2231332629,0.7017,0.7559,-0.0068,57.32,29.33,-10.06
991,2231337628,0.6777,0.7476,-0.0308,56.52,26.46,-7.99
992,2231342629,0.6875,0.7368,-0.0586,56.52,23.60,-6.10
993,2231347629,0.6948,0.7217,-0.0801,57.38,21.04,-4.51
994,2231352628,0.7026,0.7104,-0.1157,59.02,18.84,-3.41
995,2231357629,0.7139,0.6953,-0.1348,61.10,16.59,-2.68
996,2231362628,0.7173,0.6699,-0.1582,63.23,14.88,-2.20
997,2231367629,0.7427,0.6494,-0.1699,65.06,13.41,-1.95
998,2231372628,0.7754,0.6187,-0.1841,66.16,12.26,-1.77
999,2231377629,0.8071,0.5972,-0.1987,66.34,11.46,-1.59
1000,2231382628,0.8403,0.5669,-0.2036,65.79,11.04,-1.34
1001,2231387629,0.9087,0.5420,-0.1904,64.88,11.04,-0.98
1002,2231392628,0.9551,0.5234,-0.1753,63.35,11.83,-0.73
1003,2231397674,0.9561,0.5034,-0.1733,59.70,12.62,-0.43
1004,2231402628,0.9360,0.5010,-0.1670,55.61,13.17,0.06
1005,2231407629,0.8960,0.5049,-0.1523,49.27,13.41,0.61
1006,2231412628,0.8413,0.5029,-0.1426,42.62,13.35,1.16
1007,2231417629,0.7822,0.5127,-0.1396,36.40,12.87,2.07
1008,2231422628,0.7100,0.5166,-0.1333,31.28,11.71,3.23
1009,2231427629,0.6406,0.5142,-0.1235,27.80,9.94,4.70
1010,2231432628,0.5977,0.5195,-0.1182,26.10,7.80,6.34
1011,2231437629,0.5850,0.5142,-0.1230,25.18,4.57,8.11
1012,2231442628,0.5845,0.5137,-0.1294,25.06,2.50,9.21
1013,2231447629,0.5908,0.4941,-0.1514,25.18,-1.04,10.49
1014,2231452628,0.6172,0.4795,-0.1587,25.61,-3.35,10.98
1015,2231457629,0.6650,0.4458,-0.1860,26.89,-6.22,10.98
1016,2231462628,0.6982,0.4175,-0.2134,28.29,-8.23,10.24
1017,2231467629,0.7280,0.3960,-0.2476,30.06,-9.88,9.27
1018,2231472628,0.7661,0.3828,-0.2651,31.71,-11.04,7.74
1019,2231477629,0.7915,0.3623,-0.2886,32.93,-11.95,5.79
1020,2231482628,0.7998,0.3511,-0.3057,33.60,-12.26,3.60
1021,2231487630,0.8013,0.3394,-0.3174,33.60,-12.50,1.34
1022,2231492628,0.8076,0.3369,-0.3154,33.54,-12.38,-0.85
1023,2231497629,0.7935,0.3403,-0.3071,33.23,-12.01,-2.99
1024,2231502628,0.7461,0.3389,-0.3335,32.50,-11.83,-4.45
1025,2231507629,0.7090,0.3369,-0.3247,31.34,-11.59,-5.61
1026,2231512628,0.6851,0.3447,-0.3096,30.12,-11.46,-6.34
1027,2231517629,0.6489,0.3467,-0.3071,28.66,-11.28,-6.52
1028,2231522629,0.6294,0.3467,-0.3145,26.34,-11.34,-6.65
1029,2231527629,0.6099,0.3491,-0.3169,23.17,-11.40,-6.46
1030,2231532628,0.6006,0.3530,-0.3223,19.21,-11.71,-6.16
1031,2231537629,0.6006,0.3564,-0.3335,14.88,-11.89,-5.98
1032,2231542628,0.6104,0.3657,-0.3325,10.61,-12.26,-5.91
1033,2231547629,0.6113,0.3735,-0.3438,7.20,-12.62,-6.10
1034,2231552628,0.6045,0.3857,-0.3511,5.49,-13.05,-6.28
1035,2231557629,0.6113,0.3916,-0.3584,6.10,-13.35,-6.40
1036,2231562628,0.6250,0.4014,-0.3545,8.72,-13.54,-6.65
1037,2231567629,0.6357,0.4072,-0.3657,12.07,-13.72,-6.89
1038,2231572628,0.6465,0.4121,-0.3848,15.30,-13.72,-7.38
1039,2231577629,0.6631,0.4209,-0.3950,16.95,-13.54,-7.93
1040,2231582628,0.6694,0.4238,-0.3926,17.50,-13.29,-8.60
1041,2231587629,0.6660,0.4136,-0.4004,16.65,-12.80,-9.39
1042,2231592628,0.6450,0.4141,-0.4180,14.33,-12.26,-10.12
1043,2231597629,0.6470,0.4229,-0.4209,11.34,-11.89,-10.79
1044,2231602628,0.6421,0.4243,-0.4238,8.41,-11.34,-11.34
1045,2231607629,0.6250,0.4365,-0.4253,5.91,-10.79,-12.01
1046,2231612628,0.5972,0.4507,-0.4302,4.02,-10.24,-12.26
1047,2231617856,0.5952,0.4604,-0.4302,2.62,-10.00,-12.32
1048,2231622629,0.5752,0.4731,-0.4277,1.71,-9.70,-12.32
1049,2231627629,0.5684,0.4878,-0.4302,0.85,-9.76,-12.20
1050,2231632629,0.5640,0.4927,-0.4438,0.24,-9.76,-11.95
1051,2231637628,0.5654,0.4971,-0.4478,0.12,-10.18,-11.65
1052,2231642629,0.5693,0.4961,-0.4526,0.91,-10.49,-11.22
1053,2231647629,0.5747,0.4946,-0.4731,1.77,-10.73,-11.04
1054,2231652629,0.5957,0.4932,-0.4780,2.62,-10.85,-10.91
1055,2231657628,0.6211,0.4927,-0.4854,3.23,-11.22,-10.98
1056,2231662629,0.6421,0.4976,-0.4922,3.72,-10.85,-11.46
1057,2231667629,0.6489,0.5044,-0.4961,4.15,-10.73,-12.01
1058,2231672629,0.6484,0.5059,-0.4961,4.70,-10.37,-12.44
1059,2231677627,0.6494,0.5117,-0.4941,5.24,-10.12,-12.74
1060,2231682627,0.6489,0.5161,-0.5010,5.85,-9.76,-12.80
1061,2231687771,0.6538,0.5200,-0.4990,6.71,-9.39,-12.62
1062,2231693102,0.6489,0.5269,-0.4927,7.44,-9.15,-12.32
1063,2231697629,0.6567,0.5366,-0.5039,7.74,-8.90,-11.83
1064,2231702629,0.6606,0.5425,-0.5034,7.32,-8.60,-11.46
1065,2231707630,0.6533,0.5503,-0.5103,6.16,-8.35,-10.91
1066,2231712633,0.6411,0.5552,-0.5137,4.39,-8.17,-10.49
1067,2231717628,0.6357,0.5503,-0.5210,2.74,-8.05,-9.94
1068,2231722651,0.6299,0.5439,-0.5205,1.40,-7.80,-9.39
1069,2231728144,0.6235,0.5356,-0.5200,0.91,-7.68,-8.78
1070,2231732629,0.6177,0.5337,-0.5215,1.10,-7.38,-8.23
1071,2231737628,0.6245,0.5298,-0.5137,1.52,-6.95,-7.87
1072,2231742627,0.6152,0.5303,-0.5190,1.95,-6.77,-7.44
1073,2231747628,0.6133,0.5273,-0.5146,2.20,-6.40,-7.01
1074,2231752629,0.6104,0.5298,-0.5127,2.32,-5.98,-6.59
1075,2231757628,0.6138,0.5288,-0.5083,2.20,-5.55,-6.28
1076,2231762631,0.6152,0.5283,-0.5171,2.13,-4.94,-6.04
1077,2231767631,0.6313,0.5278,-0.5176,2.07,-4.39,-5.67
1078,2231772628,0.6401,0.5298,-0.5181,2.20,-3.90,-5.30
1079,2231777627,0.6357,0.5332,-0.5205,2.44,-3.35,-4.94
1080,2231782627,0.6299,0.5293,-0.5132,2.93,-2.74,-4.45
1081,2231787627,0.6230,0.5234,-0.5063,3.72,-2.20,-3.96
1082,2231792629,0.6240,0.5225,-0.5088,4.70,-1.34,-3.54
1083,2231797629,0.6216,0.5186,-0.5098,5.18,-0.79,-3.05
1084,2231802628,0.6172,0.5093,-0.5146,5.24,-0.18,-2.68
1085,2231807629,0.6191,0.5020,-0.5186,4.63,0.55,-2.38
1086,2231812627,0.6177,0.5000,-0.5269,3.48,1.22,-2.20
1087,2231817725,0.6216,0.5015,-0.5322,2.01,1.83,-2.38
1088,2231822629,0.6187,0.5039,-0.5391,0.37,2.38,-2.44
1089,2231827627,0.6118,0.5078,-0.5332,-0.79,2.93,-2.68
1090,2231832629,0.6113,0.5112,-0.5327,-1.16,3.35,-2.68
1091,2231837629,0.6191,0.5229,-0.5269,-0.61,3.96,-2.68
1092,2231842629,0.6201,0.5322,-0.5210,0.55,4.51,-2.68
1093,2231847627,0.6182,0.5371,-0.5171,1.83,4.82,-2.68
1094,2231852629,0.6226,0.5430,-0.5063,2.68,5.12,-2.56
1095,2231857629,0.6187,0.5415,-0.5054,3.17,5.49,-2.38
1096,2231862628,0.6157,0.5415,-0.5107,3.66,5.67,-2.13
1097,2231867629,0.6133,0.5371,-0.5054,3.90,5.91,-1.95
1098,2231872628,0.6123,0.5278,-0.5020,4.33,6.04,-1.65
1099,2231877629,0.6147,0.5200,-0.4951,4.76,6.10,-1.46
1100,2231882629,0.6152,0.5146,-0.4971,4.70,6.22,-1.16
1101,2231887629,0.6211,0.5059,-0.5020,4.21,6.46,-0.85
1102,2231892628,0.6313,0.4990,-0.5117,3.05,6.77,-0.79
1103,2231897629,0.6265,0.4902,-0.5098,2.01,6.77,-0.67
1104,2231902628,0.6333,0.4883,-0.5127,1.28,6.95,-0.55
1105,2231907627,0.6367,0.4819,-0.5186,0.85,7.32,-0.55
1106,2231912629,0.6377,0.4814,-0.5186,0.85,7.50,-0.61
1107,2231917629,0.6382,0.4878,-0.5156,0.61,7.87,-0.79
1108,2231922628,0.6377,0.4883,-0.5103,0.37,8.11,-1.10
1109,2231927629,0.6377,0.4961,-0.5068,-0.24,8.35,-1.28
1110,2231932628,0.6318,0.5015,-0.5005,-0.85,8.17,-1.71
1111,2231937629,0.6260,0.5078,-0.4912,-1.10,8.17,-2.07
1112,2231942628,0.6167,0.5122,-0.4858,-0.30,7.93,-2.44
1113,2231947627,0.6099,0.5146,-0.4761,1.04,7.62,-2.74
1114,2231952631,0.6060,0.5161,-0.4741,3.11,7.26,-3.05
1115,2231957629,0.6084,0.5225,-0.4790,5.55,6.71,-3.35
1116,2231962629,0.6108,0.5112,-0.4678,8.23,6.46,-3.78
1117,2231967629,0.6113,0.5059,-0.4702,10.43,6.04,-3.78
1118,2231972629,0.6157,0.5005,-0.4771,11.65,5.61,-4.02
1119,2231977842,0.6196,0.4976,-0.4756,12.20,5.30,-4.15
1120,2231982629,0.6255,0.4976,-0.4741,11.95,5.18,-4.39
1121,2231987629,0.6333,0.4932,-0.4736,10.67,5.06,-4.39
1122,2231992629,0.6333,0.4907,-0.4756,8.54,5.00,-4.45
1123,2231997627,0.6323,0.4907,-0.4727,5.55,5.00,-4.45
1124,2232002629,0.6406,0.4902,-0.4751,2.44,5.06,-4.57
1125,2232007629,0.6411,0.4912,-0.4678,-0.43,5.06,-4.82
1126,2232012629,0.6519,0.4961,-0.4707,-2.68,5.24,-4.94
1127,2232017629,0.6567,0.4966,-0.4814,-3.72,5.30,-5.06
1128,2232022628,0.6670,0.4951,-0.4771,-3.60,5.49,-5.43
1129,2232027627,0.6782,0.4980,-0.4834,-2.32,5.49,-5.73
1130,2232032629,0.6772,0.5010,-0.4805,-0.43,5.55,-6.16
1131,2232037629,0.6655,0.5015,-0.4722,1.89,5.37,-6.59
1132,2232042629,0.6528,0.5039,-0.4780,4.45,5.55,-7.01
1133,2232047629,0.6484,0.5059,-0.4702,7.13,5.67,-7.44
1134,2232052629,0.6353,0.5137,-0.4692,9.63,5.61,-7.62
1135,2232057629,0.6216,0.5171,-0.4756,11.52,5.73,-7.87
1136,2232062629,0.6235,0.5200,-0.4668,12.93,5.67,-7.80
1137,2232067629,0.6279,0.5181,-0.4570,14.15,5.67,-7.87
1138,2232072629,0.6318,0.5195,-0.4463,15.06,5.67,-7.87
1139,2232077675,0.6392,0.5156,-0.4507,15.43,5.98,-7.62
1140,2232082631,0.6450,0.5127,-0.4404,15.06,6.10,-7.38
1141,2232087627,0.6436,0.5195,-0.4360,13.96,6.22,-6.89
1142,2232092627,0.6396,0.5215,-0.4258,12.26,6.59,-6.46
1143,2232097713,0.6333,0.5312,-0.4170,9.51,7.01,-5.85
1144,2232102629,0.6313,0.5381,-0.4092,5.85,7.38,-5.18
1145,2232107629,0.6284,0.5464,-0.4199,1.83,7.62,-4.39
1146,2232112628,0.6274,0.5522,-0.4199,-2.13,7.87,-3.66
1147,2232117629,0.6411,0.5488,-0.4277,-5.24,7.62,-3.05
1148,2232122631,0.6553,0.5557,-0.4258,-6.16,7.50,-2.32
1149,2232127629,0.6567,0.5542,-0.4326,-5.30,7.26,-1.65
1150,2232132628,0.6655,0.5518,-0.4346,-2.99,7.01,-1.16
1151,2232137627,0.6738,0.5493,-0.4326,0.12,6.83,-0.79
1152,2232142627,0.6792,0.5503,-0.4316,2.99,6.65,-0.67
1153,2232147629,0.6802,0.5454,-0.4321,5.06,6.40,-0.73
1154,2232152629,0.6807,0.5371,-0.4370,5.85,6.22,-0.79
1155,2232157629,0.6719,0.5366,-0.4458,5.67,5.73,-0.91
1156,2232162629,0.6694,0.5298,-0.4424,5.12,5.67,-1.16
1157,2232167629,0.6685,0.5200,-0.4521,4.88,5.30,-1.22
1158,2232172629,0.6602,0.5156,-0.4556,5.06,5.12,-1.22
1159,2232177629,0.6650,0.5093,-0.4668,6.04,4.76,-1.40
1160,2232182630,0.6685,0.5044,-0.4702,7.87,4.57,-1.28
1161,2232188080,0.6631,0.5024,-0.4624,10.12,4.63,-1.16
1162,2232192628,0.6636,0.4966,-0.4653,11.65,4.63,-1.16
1163,2232197633,0.6636,0.4976,-0.4707,11.83,4.76,-1.04
1164,2232202629,0.6602,0.5010,-0.4668,10.37,4.94,-0.85
1165,2232207629,0.6470,0.5103,-0.4629,7.56,5.18,-0.73
1166,2232212629,0.6587,0.5171,-0.4668,4.39,5.06,-0.67
1167,2232217629,0.6733,0.5220,-0.4653,1.83,4.94,-0.55
1168,2232223015,0.6880,0.5298,-0.4531,1.16,4.88,-0.49
1169,2232227629,0.6948,0.5371,-0.4468,2.32,5.00,-0.43
1170,2232232628,0.6948,0.5479,-0.4346,4.94,4.82,-0.18
1171,2232237629,0.6821,0.5562,-0.4292,8.11,4.63,0.12
1172,2232242628,0.6621,0.5591,-0.4185,11.16,4.27,0.49
1173,2232247629,0.6445,0.5693,-0.4121,13.05,3.72,1.04
1174,2232252629,0.6274,0.5679,-0.4116,14.02,3.05,1.52
1175,2232257629,0.6206,0.5669,-0.4082,14.09,2.50,2.07
1176,2232262629,0.6206,0.5596,-0.4087,13.23,1.89,2.56
1177,2232267629,0.6245,0.5469,-0.4214,11.89,1.34,3.11
1178,2232272629,0.6294,0.5327,-0.4282,9.88,0.79,3.41
1179,2232277629,0.6387,0.5229,-0.4414,7.56,0.49,3.60
1180,2232282629,0.6421,0.5117,-0.4531,5.30,0.43,3.72
1181,2232287629,0.6396,0.4980,-0.4561,3.17,0.37,3.84
1182,2232292629,0.6460,0.4951,-0.4546,1.28,0.43,3.78
1183,2232297629,0.6523,0.4995,-0.4595,-0.06,0.61,3.84
1184,2232302629,0.6421,0.4985,-0.4629,-0.85,0.55,3.66
1185,2232307629,0.6567,0.5044,-0.4673,-0.49,0.61,3.41
1186,2232312629,0.6631,0.5098,-0.4692,0.73,0.55,3.23
1187,2232317629,0.6699,0.5142,-0.4688,3.23,0.37,2.87
1188,2232322629,0.6724,0.5229,-0.4712,6.52,0.43,2.44
1189,2232327629,0.6714,0.5259,-0.4639,9.88,0.37,2.07
1190,2232332629,0.6709,0.5264,-0.4614,13.17,0.30,1.71
1191,2232337629,0.6738,0.5234,-0.4663,16.10,0.37,1.46
1192,2232342629,0.6709,0.5264,-0.4575,17.93,0.37,1.04
1193,2232347629,0.6646,0.5210,-0.4639,18.66,0.37,0.85
1194,2232352629,0.6475,0.5200,-0.4629,18.35,0.37,0.73
1195,2232357629,0.6396,0.5200,-0.4595,17.38,0.37,0.61
1196,2232362629,0.6299,0.5142,-0.4502,16.22,0.30,0.67
1197,2232367629,0.6230,0.5083,-0.4414,14.70,0.43,0.79
1198,2232372629,0.6128,0.5132,-0.4365,12.80,0.61,1.10
1199,2232377629,0.6035,0.5103,-0.4297,10.06,0.73,1.40
1200,2232382629,0.6006,0.5200,-0.4194,6.89,0.91,1.95
1201,2232387629,0.6055,0.5171,-0.4224,3.60,1.16,2.50
1202,2232392629,0.6069,0.5269,-0.4209,0.61,1.34,3.11
1203,2232397629,0.6099,0.5332,-0.4204,-1.71,1.59,3.84
1204,2232402629,0.6196,0.5239,-0.4297,-2.74,2.01,4.57
1205,2232407627,0.6362,0.5151,-0.4380,-2.26,2.26,5.18
1206,2232412629,0.6445,0.5083,-0.4468,-0.37,2.74,5.61
1207,2232417629,0.6602,0.4961,-0.4551,2.13,2.99,5.91
1208,2232422629,0.6680,0.4878,-0.4697,4.76,3.48,5.98
1209,2232427629,0.6675,0.4829,-0.4775,6.65,3.72,5.73
1210,2232432629,0.6621,0.4746,-0.4805,7.99,3.96,5.24
1211,2232437629,0.6699,0.4653,-0.4810,8.54,4.02,4.45
1212,2232442629,0.6729,0.4673,-0.4756,8.23,4.09,3.66
1213,2232447629,0.6655,0.4727,-0.4775,7.50,3.96,2.74
1214,2232452629,0.6484,0.4746,-0.4653,6.28,3.84,1.95
1215,2232457629,0.6445,0.4795,-0.4609,5.24,3.48,1.34
1216,2232462629,0.6465,0.4854,-0.4443,4.94,3.29,0.79
1217,2232467629,0.6357,0.4956,-0.4478,5.30,2.99,0.43
1218,2232472629,0.6367,0.4976,-0.4419,5.98,2.50,0.12
1219,2232477629,0.6431,0.4976,-0.4390,7.07,2.32,-0.06
1220,2232482629,0.6445,0.4956,-0.4341,8.35,2.07,-0.24
1221,2232487629,0.6489,0.4922,-0.4341,9.82,1.89,-0.43
1222,2232492629,0.6470,0.4888,-0.4380,11.10,1.83,-0.49
1223,2232497629,0.6514,0.4863,-0.4409,11.95,1.65,-0.55
1224,2232502629,0.6484,0.4873,-0.4399,12.26,1.83,-0.61
1225,2232507629,0.6440,0.4878,-0.4390,11.40,1.77,-0.61
1226,2232512629,0.6489,0.4912,-0.4312,10.12,1.83,-0.67
1227,2232517629,0.6577,0.5000,-0.4360,8.35,1.89,-0.73
1228,2232522630,0.6553,0.5054,-0.4321,6.59,1.77,-0.61
1229,2232527629,0.6572,0.5166,-0.4287,4.88,1.52,-0.43
1230,2232532629,0.6479,0.5317,-0.4307,3.54,1.28,-0.18
1231,2232537629,0.6450,0.5347,-0.4253,2.93,0.73,0.18
1232,2232542629,0.6440,0.5396,-0.4268,3.29,0.43,0.61
1233,2232547629,0.6377,0.5454,-0.4248,4.39,-0.12,1.10
1234,2232552629,0.6318,0.5420,-0.4199,5.85,-0.55,1.52
1235,2232557629,0.6323,0.5361,-0.4199,7.32,-1.04,1.89
1236,2232562629,0.6357,0.5288,-0.4229,8.72,-1.40,2.32
1237,2232567629,0.6499,0.5195,-0.4258,9.70,-1.71,2.56
1238,2232572629,0.6572,0.5093,-0.4316,10.24,-1.89,2.56
1239,2232577629,0.6548,0.5015,-0.4365,10.30,-1.83,2.50
1240,2232582629,0.6587,0.4946,-0.4453,9.82,-1.77,2.38
1241,2232587629,0.6680,0.4902,-0.4399,9.15,-1.77,2.07
1242,2232592629,0.6694,0.4922,-0.4365,8.17,-1.52,1.89
1243,2232597629,0.6641,0.4917,-0.4404,6.95,-1.46,1.65
1244,2232602629,0.6641,0.4985,-0.4473,5.43,-1.34,1.59
1245,2232607629,0.6626,0.5063,-0.4385,4.21,-1.34,1.40
1246,2232612629,0.6572,0.5063,-0.4399,3.60,-1.28,1.40
1247,2232617629,0.6426,0.5103,-0.4307,3.60,-1.28,1.59
1248,2232622629,0.6372,0.5083,-0.4346,4.21,-1.34,2.01
1249,2232627629,0.6323,0.5122,-0.4307,5.30,-1.34,2.44
1250,2232632629,0.6182,0.5078,-0.4297,6.28,-1.34,2.93
1251,2232637629,0.6182,0.4995,-0.4424,6.59,-1.34,3.29
1252,2232642630,0.6270,0.5000,-0.4463,6.34,-1.46,3.66
1253,2232647629,0.6348,0.4951,-0.4565,5.79,-1.46,3.78
1254,2232652628,0.6533,0.4951,-0.4541,5.06,-1.52,3.78
1255,2232657629,0.6514,0.4907,-0.4570,4.45,-1.46,3.54
1256,2232662628,0.6582,0.4937,-0.4526,4.02,-1.40,3.23
1257,2232667630,0.6572,0.4985,-0.4507,4.09,-1.46,2.80
1258,2232672657,0.6641,0.5029,-0.4424,4.82,-1.04,2.50
1259,2232677629,0.6660,0.5073,-0.4478,6.28,-0.91,2.32
1260,2232682628,0.6602,0.5054,-0.4448,7.50,-0.61,2.26
1261,2232687629,0.6484,0.5015,-0.4438,8.35,-0.37,2.38
1262,2232692628,0.6274,0.5039,-0.4478,8.41,-0.18,2.62
1263,2232697629,0.6128,0.5049,-0.4507,7.26,0.06,2.87
1264,2232702628,0.6108,0.5054,-0.4487,5.49,0.06,3.11
1265,2232707629,0.6201,0.5024,-0.4492,3.41,0.43,3.41
1266,2232712628,0.6245,0.4937,-0.4546,1.71,0.49,3.60
1267,2232717629,0.6348,0.4897,-0.4570,0.55,0.67,3.66
1268,2232722628,0.6445,0.4893,-0.4595,0.24,0.79,3.48
1269,2232727631,0.6460,0.4756,-0.4629,0.85,1.16,3.41
1270,2232732628,0.6465,0.4697,-0.4648,1.71,1.40,3.35
1271,2232737629,0.6499,0.4731,-0.4521,2.44,1.71,3.29
1272,2232742628,0.6362,0.4785,-0.4541,2.26,1.95,3.17
1273,2232747629,0.6333,0.4775,-0.4546,1.40,2.01,3.23
1274,2232752628,0.6392,0.4863,-0.4502,-0.06,2.26,3.23
1275,2232757629,0.6392,0.4951,-0.4448,-1.52,2.44,3.11
1276,2232762628,0.6421,0.4980,-0.4448,-2.93,2.50,2.99
1277,2232767629,0.6382,0.5063,-0.4448,-4.09,2.74,2.99
1278,2232772628,0.6372,0.5103,-0.4341,-4.57,2.74,3.05
1279,2232777629,0.6265,0.5176,-0.4229,-4.51,2.99,3.17
1280,2232782628,0.6274,0.5225,-0.4224,-3.66,2.80,3.17
1281,2232787629,0.6245,0.5171,-0.4229,-2.26,2.87,3.23
1282,2232792628,0.6221,0.5156,-0.4102,-0.67,2.80,3.41
1283,2232797629,0.6172,0.5161,-0.4116,0.73,2.62,3.54
1284,2232802628,0.6216,0.5151,-0.4058,1.59,2.68,3.54
1285,2232807629,0.6226,0.5078,-0.4116,1.52,2.44,3.66
1286,2232812628,0.6240,0.5078,-0.4077,0.61,2.32,3.84
1287,2232817990,0.6201,0.5112,-0.4004,-0.61,2.07,4.09
1288,2232822629,0.6265,0.5210,-0.3892,-2.07,2.07,4.15
1289,2232827629,0.6362,0.5259,-0.3940,-3.54,1.83,4.33
1290,2232832629,0.6392,0.5361,-0.3887,-5.06,1.83,4.63
1291,2232837629,0.6494,0.5322,-0.3770,-6.16,1.77,5.06
1292,2232842629,0.6528,0.5425,-0.3716,-7.01,1.65,5.43
1293,2232847627,0.6401,0.5479,-0.3691,-7.50,1.52,5.91
1294,2232852629,0.6294,0.5537,-0.3535,-7.62,1.59,6.65
1295,2232857629,0.6118,0.5537,-0.3486,-7.32,1.59,7.38
1296,2232862629,0.5991,0.5518,-0.3384,-6.89,1.52,8.11
1297,2232867629,0.5859,0.5459,-0.3345,-6.22,1.52,8.66
1298,2232872629,0.5757,0.5347,-0.3320,-5.24,1.65,9.09
1299,2232877767,0.5649,0.5259,-0.3340,-4.02,1.71,9.57
1300,2232882629,0.5420,0.5190,-0.3428,-2.74,2.07,9.82
1301,2232887629,0.5273,0.4961,-0.3550,-0.91,2.50,9.82
1302,2232892629,0.5435,0.4780,-0.3564,1.52,3.11,9.82
