# skilleye imu stream v1
# device=xiao_esp32c6 imu=mpu6050 addr=0x68
# rate_hz=200 accel_range_g=16 gyro_range_dps=2000 dlpf_hz=94
# units: accel in g, gyro in deg/s, t_us in microseconds since boot (monotonic)
# no shared clock with the camera -- tap the racket once before each take
# so both recordings share a spike to align on
seq,t_us,ax,ay,az,gx,gy,gz
0,2252482629,-0.0029,-0.9844,0.3071,10.79,-9.45,28.11
1,2252487629,-0.0078,-0.9897,0.3198,7.32,-11.34,27.87
2,2252492629,-0.0142,-1.0000,0.3262,2.99,-13.48,27.32
3,2252497629,-0.0186,-1.0137,0.3174,-1.59,-15.24,26.65
4,2252502629,-0.0234,-1.0220,0.3091,-5.79,-17.20,25.91
5,2252507627,-0.0381,-1.0283,0.3047,-9.39,-18.66,25.18
6,2252512629,-0.0522,-1.0391,0.2900,-11.71,-19.94,24.39
7,2252517629,-0.0527,-1.0293,0.2788,-13.23,-21.04,23.84
8,2252522629,-0.0249,-1.0127,0.2603,-13.66,-21.83,23.35
9,2252527629,-0.0020,-1.0020,0.2559,-13.48,-22.62,22.93
10,2252533109,0.0107,-1.0049,0.2637,-12.26,-23.29,22.44
11,2252537630,0.0181,-1.0156,0.2681,-11.34,-24.09,22.38
12,2252542628,0.0181,-1.0200,0.2617,-9.76,-24.70,22.38
13,2252547629,0.0171,-1.0073,0.2554,-7.87,-25.37,22.32
14,2252552627,0.0146,-0.9966,0.2607,-5.79,-26.10,22.44
15,2252557629,0.0068,-0.9863,0.2568,-3.66,-27.01,22.62
16,2252562629,0.0044,-0.9824,0.2612,-1.22,-27.68,22.99
17,2252567629,0.0029,-0.9795,0.2593,1.34,-28.54,23.48
18,2252572629,0.0029,-0.9849,0.2534,4.39,-29.27,24.02
19,2252577677,0.0029,-0.9937,0.2417,7.50,-29.76,24.63
20,2252582629,0.0088,-1.0000,0.2275,10.61,-30.30,25.24
21,2252587629,0.0083,-1.0142,0.2095,13.11,-30.85,25.67
22,2252592629,0.0098,-1.0298,0.1968,14.94,-31.46,25.98
23,2252597629,0.0107,-1.0459,0.1978,15.67,-31.89,25.85
24,2252602630,0.0000,-1.0547,0.1987,14.94,-32.26,25.67
25,2252607628,-0.0254,-1.0742,0.2114,12.87,-32.62,25.06
26,2252612629,-0.0684,-1.0986,0.2231,9.88,-32.74,24.39
27,2252617629,-0.0957,-1.0908,0.2163,6.65,-32.62,23.72
28,2252622630,-0.0967,-1.0688,0.2002,4.02,-32.20,23.05
29,2252627628,-0.0874,-1.0562,0.1855,1.83,-31.46,22.20
30,2252632630,-0.0811,-1.0576,0.1772,0.49,-30.67,21.65
31,2252637629,-0.0879,-1.0674,0.1870,-0.49,-29.82,21.04
32,2252642629,-0.0952,-1.0747,0.1890,-0.79,-28.84,20.55
33,2252647627,-0.1060,-1.0640,0.1860,-0.73,-27.80,20.12
34,2252652629,-0.1060,-1.0605,0.1870,-0.30,-26.52,19.63
35,2252658179,-0.0933,-1.0664,0.1719,0.79,-25.12,19.27
36,2252662629,-0.0825,-1.0718,0.1611,1.59,-24.33,19.02
37,2252667629,-0.0757,-1.0742,0.1548,2.26,-23.60,18.66
38,2252672629,-0.0898,-1.0698,0.1543,2.32,-22.80,18.05
39,2252677805,-0.0962,-1.0801,0.1519,1.46,-22.50,16.95
40,2252682630,-0.1011,-1.0938,0.1685,-0.49,-22.13,15.55
41,2252687629,-0.1060,-1.1133,0.1753,-3.41,-22.13,13.78
42,2252692630,-0.1108,-1.1133,0.1816,-6.65,-22.13,11.71
43,2252697627,-0.1050,-1.1230,0.1724,-9.70,-21.89,9.15
44,2252702628,-0.1089,-1.1299,0.1709,-12.87,-21.52,6.59
45,2252707984,-0.1089,-1.1240,0.1621,-16.52,-20.85,3.35
46,2252712629,-0.1060,-1.1206,0.1592,-18.72,-20.37,1.16
47,2252717629,-0.1011,-1.1147,0.1475,-21.22,-19.27,-1.52
48,2252722629,-0.1074,-1.1128,0.1479,-22.93,-18.23,-3.96
49,2252727629,-0.1187,-1.1099,0.1445,-23.96,-16.89,-6.28
50,2252732627,-0.1357,-1.0923,0.1436,-24.02,-15.37,-8.17
51,2252737629,-0.1177,-1.0693,0.1343,-23.66,-14.02,-10.00
52,2252742628,-0.1240,-1.0723,0.1338,-23.29,-12.56,-11.46
53,2252747629,-0.1333,-1.0601,0.1533,-22.87,-11.28,-12.62
54,2252752627,-0.1406,-1.0474,0.1582,-22.26,-9.82,-13.48
55,2252758023,-0.1470,-1.0337,0.1548,-20.98,-8.17,-14.33
56,2252762629,-0.1504,-1.0273,0.1426,-20.00,-7.32,-14.82
57,2252767629,-0.1489,-1.0215,0.1460,-18.48,-5.85,-15.43
58,2252772629,-0.1348,-1.0190,0.1509,-16.65,-4.70,-15.85
59,2252777652,-0.1377,-1.0166,0.1494,-14.94,-3.66,-16.40
60,2252782629,-0.1411,-1.0166,0.1465,-13.17,-2.74,-17.01
61,2252787629,-0.1475,-1.0117,0.1431,-11.65,-1.89,-17.50
62,2252792629,-0.1504,-1.0142,0.1436,-10.30,-1.16,-18.17
63,2252797758,-0.1484,-1.0049,0.1440,-9.45,-0.43,-18.90
64,2252802629,-0.1489,-1.0010,0.1421,-9.33,-0.06,-19.51
65,2252807629,-0.1440,-1.0054,0.1416,-9.57,0.37,-20.12
66,2252812629,-0.1401,-1.0010,0.1421,-10.06,0.49,-20.73
67,2252817630,-0.1382,-1.0005,0.1440,-10.73,0.49,-21.22
68,2252822629,-0.1489,-1.0049,0.1436,-11.71,0.73,-21.77
69,2252827629,-0.1606,-1.0010,0.1396,-12.68,0.73,-22.07
70,2252832629,-0.1729,-0.9927,0.1348,-13.66,0.73,-22.26
71,2252837628,-0.1733,-0.9854,0.1421,-14.51,0.85,-22.26
72,2252842630,-0.1611,-0.9502,0.1309,-15.24,0.98,-21.95
73,2252847629,-0.1533,-0.9458,0.1279,-16.46,1.34,-21.52
74,2252852629,-0.1523,-0.9697,0.1621,-17.50,2.07,-20.73
75,2252857628,-0.1621,-0.9683,0.1348,-18.17,2.68,-19.88
76,2252862629,-0.1743,-0.9526,0.1206,-17.56,3.23,-19.02
77,2252867629,-0.1748,-0.9419,0.1431,-15.85,3.66,-18.11
78,2252872629,-0.1689,-0.9463,0.1572,-13.72,4.02,-17.32
79,2252877629,-0.1626,-0.9463,0.1562,-11.65,4.45,-16.40
80,2252882629,-0.1592,-0.9385,0.1650,-9.88,4.51,-15.55
81,2252887629,-0.1597,-0.9214,0.1689,-8.23,4.51,-14.88
82,2252892629,-0.1626,-0.9023,0.1470,-5.91,4.51,-14.21
83,2252897627,-0.1196,-0.9351,0.1772,-3.96,4.15,-13.48
84,2252902629,-0.1216,-0.9307,0.1924,-3.11,3.41,-12.62
85,2252907629,-0.1499,-0.9253,0.2036,-3.23,2.80,-11.77
86,2252912630,-0.1885,-0.9014,0.2002,-3.90,2.07,-11.04
87,2252917627,-0.2129,-0.9116,0.1836,-4.33,0.98,-10.43
88,2252922629,-0.2344,-0.9233,0.2017,-4.88,-0.43,-9.94
89,2252927629,-0.2549,-0.9438,0.2070,-5.55,-2.26,-9.39
90,2252932629,-0.2529,-0.9194,0.2017,-5.79,-4.15,-8.84
91,2252937628,-0.2285,-0.9067,0.1997,-6.04,-6.10,-8.23
92,2252942630,-0.2017,-0.8896,0.1992,-6.40,-7.87,-7.56
93,2252947629,-0.1890,-0.8848,0.2178,-6.95,-9.76,-6.95
94,2252952629,-0.1870,-0.8730,0.2246,-7.01,-11.34,-6.40
95,2252957918,-0.1226,-0.9199,0.2388,-6.46,-13.78,-5.85
96,2252962629,-0.1362,-0.9248,0.2363,-6.40,-15.12,-5.37
97,2252967629,-0.1533,-0.9531,0.2275,-6.83,-16.46,-4.76
98,2252972629,-0.1523,-0.9341,0.2056,-7.80,-17.99,-3.96
99,2252977628,-0.1670,-0.9512,0.1885,-10.00,-19.39,-3.29
100,2252982629,-0.1919,-0.9854,0.1533,-12.56,-21.28,-2.07
101,2252987629,-0.3213,-0.9351,0.1499,-14.39,-23.11,-0.55
102,2252992629,-0.2114,-0.9502,0.0898,-14.27,-25.85,0.79
103,2252997629,-0.0586,-1.0107,0.1875,-15.91,-28.60,2.56
104,2253002629,-0.0391,-1.0107,0.2246,-20.85,-30.73,4.63
105,2253007629,-0.0796,-0.9702,0.2104,-26.71,-32.74,6.22
106,2253012629,-0.1357,-0.9238,0.1992,-31.83,-34.39,7.32
107,2253017629,-0.2002,-0.9067,0.1865,-35.30,-35.49,7.50
108,2253022628,-0.2456,-0.9326,0.1680,-37.01,-36.46,7.26
109,2253027631,-0.2798,-0.9751,0.1577,-37.38,-37.38,6.89
110,2253032628,-0.2798,-0.9858,0.1592,-37.01,-38.05,6.71
111,2253037629,-0.2715,-0.9829,0.1455,-36.16,-38.23,6.34
112,2253042627,-0.2568,-0.9736,0.1309,-35.24,-38.84,5.85
113,2253047630,-0.2666,-0.9658,0.1157,-34.02,-39.27,5.24
114,2253052678,-0.2817,-0.9497,0.0952,-33.41,-39.51,4.45
115,2253057629,-0.3027,-0.9609,0.1279,-33.78,-40.00,3.72
116,2253062627,-0.2964,-0.9766,0.1592,-34.57,-39.94,2.99
117,2253067629,-0.2793,-0.9814,0.1470,-35.18,-39.70,2.20
118,2253072628,-0.2632,-0.9766,0.1245,-35.18,-39.57,1.16
119,2253077629,-0.2529,-0.9790,0.1304,-34.51,-39.02,0.12
120,2253082627,-0.2500,-0.9790,0.1240,-33.11,-38.54,-0.67
121,2253087627,-0.2471,-0.9829,0.1167,-31.10,-37.87,-1.16
122,2253092627,-0.2495,-0.9702,0.1143,-28.60,-37.20,-1.28
123,2253097627,-0.2534,-0.9561,0.1250,-26.10,-36.65,-1.10
124,2253102627,-0.2456,-0.9380,0.1274,-23.78,-36.22,-0.73
125,2253107632,-0.2368,-0.9121,0.1216,-22.01,-35.61,-0.24
126,2253112627,-0.2070,-0.8945,0.0825,-21.28,-34.82,0.49
127,2253117629,-0.2046,-0.8687,0.0435,-22.68,-34.21,1.34
128,2253122629,-0.2290,-0.8481,0.1084,-24.57,-33.72,2.26
129,2253127632,-0.2451,-0.8525,0.2036,-25.73,-32.44,3.17
130,2253132627,-0.2314,-0.8848,0.1997,-25.85,-31.65,3.84
131,2253137627,-0.2236,-0.9146,0.1665,-25.24,-31.22,4.27
132,2253142629,-0.2148,-0.9150,0.1611,-23.41,-30.37,4.51
133,2253147628,-0.1753,-0.8545,0.1406,-20.30,-29.27,4.27
134,2253152654,-0.1572,-0.8828,0.1323,-16.46,-27.87,3.60
135,2253157627,-0.1587,-0.9004,0.1113,-12.44,-26.40,3.23
136,2253162627,-0.1553,-0.9019,0.0801,-9.33,-24.70,2.80
137,2253167629,-0.2261,-0.9077,0.1104,-7.56,-23.05,2.26
138,2253172629,-0.2563,-0.8833,0.1436,-5.18,-20.73,2.32
139,2253177627,-0.1816,-0.8687,0.1201,-3.29,-18.90,1.83
140,2253183161,-0.1782,-0.9263,0.1216,-2.44,-17.38,1.16
141,2253187629,-0.1997,-0.9414,0.1084,-2.56,-16.52,0.98
142,2253192627,-0.2300,-0.9463,0.1201,-2.93,-15.37,0.73
143,2253197633,-0.2480,-0.9229,0.1113,-2.93,-14.21,1.10
144,2253202627,-0.2529,-0.8979,0.0791,-2.62,-13.23,1.34
145,2253207627,-0.2783,-0.9136,0.0923,-2.26,-11.95,1.95
146,2253212627,-0.2720,-0.8975,0.0898,-1.71,-10.30,2.87
147,2253217909,-0.2578,-0.8979,0.0869,-0.73,-8.29,4.33
148,2253222629,-0.2476,-0.8984,0.0713,0.06,-6.89,5.49
149,2253227627,-0.2388,-0.8906,0.0742,1.16,-5.18,7.20
150,2253232629,-0.2295,-0.9067,0.0703,2.13,-3.29,9.33
151,2253237629,-0.1992,-0.9253,0.0635,3.66,-1.40,12.01
152,2253242628,-0.1606,-0.9141,0.0547,5.37,0.18,15.06
153,2253247629,-0.1099,-0.8726,0.0459,7.62,1.83,17.93
154,2253252628,-0.0742,-0.8579,0.0552,10.43,3.11,20.30
155,2253257629,-0.0571,-0.8784,0.0537,13.29,4.02,22.50
156,2253262629,-0.0615,-0.9341,0.0503,16.04,4.15,24.70
157,2253267629,-0.0781,-0.9321,0.0352,18.17,3.78,27.20
158,2253272627,-0.0508,-0.8794,0.0801,19.76,3.29,29.15
159,2253277627,-0.0718,-0.9004,0.1685,21.59,3.60,30.73
160,2253282629,-0.0967,-0.8916,0.1489,23.35,4.15,32.13
161,2253287629,-0.1089,-0.8726,0.0957,25.61,4.39,33.35
162,2253292628,-0.0835,-0.8804,0.0942,27.20,5.00,34.39
163,2253298069,-0.0557,-0.9165,0.0747,28.11,6.10,35.91
164,2253302629,-0.0728,-0.9199,0.0112,28.35,6.77,37.07
165,2253307692,-0.1157,-0.9087,0.0151,28.60,7.38,38.11
166,2253312629,-0.1475,-0.9121,0.0518,28.78,8.05,38.66
167,2253317630,-0.1763,-0.9561,0.0464,28.72,8.84,38.54
168,2253322629,-0.2124,-1.0142,0.0356,28.23,9.45,37.80
169,2253327627,-0.2515,-1.0698,0.0420,27.01,10.30,36.77
170,2253332629,-0.2617,-1.1040,0.0654,25.85,11.22,35.43
171,2253337629,-0.2432,-1.1260,0.0352,24.63,12.13,33.35
172,2253342629,-0.2217,-1.1558,0.0181,24.02,13.05,31.10
173,2253347628,-0.2021,-1.1763,0.0127,23.60,13.84,28.35
174,2253352627,-0.2168,-1.1895,-0.0308,24.15,14.70,25.43
175,2253357630,-0.2432,-1.2139,-0.0371,28.29,14.88,22.56
176,2253362628,-0.2705,-1.2393,-0.1655,35.12,16.46,19.76
177,2253367630,-0.2358,-1.2124,-0.1660,41.77,18.66,16.83
178,2253372627,-0.2134,-1.1924,-0.0435,47.80,20.06,13.60
179,2253377629,-0.2085,-1.1914,-0.0332,53.35,21.04,10.37
180,2253382628,-0.2163,-1.2046,-0.1064,58.17,22.50,7.44
181,2253387629,-0.2280,-1.2104,-0.0933,61.89,24.02,4.70
182,2253392629,-0.2334,-1.2061,-0.0708,64.09,25.24,2.38
183,2253397629,-0.2041,-1.1860,-0.1177,64.27,26.40,0.18
184,2253402628,-0.1699,-1.1787,-0.1089,62.99,27.74,-1.65
185,2253407629,-0.1621,-1.1738,-0.0576,60.67,29.02,-3.48
186,2253412629,-0.1577,-1.1733,-0.0405,57.87,30.24,-5.12
187,2253417629,-0.1499,-1.1880,-0.0449,55.00,31.52,-6.65
188,2253422628,-0.1562,-1.1865,-0.0352,51.77,32.74,-8.17
189,2253427629,-0.1675,-1.1826,-0.0122,47.56,33.96,-9.82
190,2253432643,-0.1802,-1.1743,-0.0215,42.80,35.12,-11.22
191,2253437631,-0.1875,-1.1650,-0.0234,38.17,36.59,-12.68
192,2253442628,-0.1987,-1.1943,0.0020,34.63,37.44,-14.15
193,2253447629,-0.2012,-1.2002,0.0137,32.62,38.23,-15.91
194,2253452627,-0.2026,-1.1978,-0.0010,31.65,38.84,-17.87
195,2253457630,-0.1909,-1.1821,0.0205,30.91,39.82,-19.88
196,2253462628,-0.1680,-1.1606,0.0479,30.00,40.30,-21.83
197,2253467631,-0.2046,-1.1738,0.0498,29.39,40.91,-23.66
198,2253472627,-0.2197,-1.1899,0.0356,29.21,41.52,-25.55
199,2253477629,-0.2061,-1.1895,0.0522,29.39,42.07,-27.68
200,2253482628,-0.1899,-1.1909,0.0752,29.70,42.38,-30.12
201,2253487629,-0.1851,-1.1880,0.0703,29.76,42.62,-32.38
202,2253492627,-0.1812,-1.1880,0.0664,29.88,42.93,-34.63
203,2253497629,-0.1748,-1.1846,0.0850,29.82,42.99,-36.59
204,2253502628,-0.1221,-1.1826,0.0938,29.27,42.87,-38.60
205,2253507629,-0.1079,-1.1914,0.0981,28.23,42.80,-40.37
206,2253512627,-0.1167,-1.1934,0.1143,26.40,42.99,-42.07
207,2253517629,-0.1089,-1.1851,0.1206,24.27,42.93,-43.60
208,2253522628,-0.0884,-1.1738,0.1299,21.89,42.87,-44.82
209,2253527629,-0.0771,-1.1704,0.1362,19.57,42.62,-46.10
210,2253532627,-0.0728,-1.1582,0.1567,17.56,42.44,-47.20
211,2253537629,-0.0723,-1.1484,0.1572,15.98,42.13,-48.29
212,2253542628,-0.0698,-1.1396,0.1646,14.33,41.65,-49.02
213,2253547629,-0.0796,-1.1270,0.1768,12.44,41.16,-49.88
214,2253552627,-0.0923,-1.1162,0.1909,10.30,40.49,-50.61
215,2253557630,-0.0796,-1.1074,0.1924,7.74,40.06,-51.34
216,2253562628,-0.0752,-1.1064,0.2085,5.30,39.63,-52.01
217,2253567629,-0.0815,-1.1074,0.2124,2.93,39.33,-52.44
218,2253572629,-0.0874,-1.1040,0.2241,0.73,38.60,-52.62
219,2253577629,-0.0649,-1.0967,0.2314,-0.49,38.05,-52.93
220,2253582628,-0.0366,-1.1040,0.2314,-0.98,37.26,-53.17
221,2253587627,-0.0273,-1.1099,0.2393,-0.61,36.52,-53.41
222,2253592629,-0.0229,-1.1328,0.2476,0.37,35.73,-54.02
223,2253597629,-0.0249,-1.1494,0.2505,1.34,34.82,-54.51
224,2253602629,-0.0239,-1.1772,0.2666,2.13,34.09,-55.55
225,2253607671,-0.0303,-1.2056,0.2744,2.74,33.41,-56.89
226,2253612627,-0.0410,-1.2319,0.2759,3.48,32.87,-58.72
227,2253617627,-0.0562,-1.2656,0.2842,3.96,32.07,-61.40
228,2253622629,-0.0566,-1.2881,0.2891,4.09,31.77,-63.54
229,2253627632,-0.0601,-1.3101,0.3042,3.78,31.28,-66.52
230,2253632627,-0.0562,-1.3257,0.3237,3.17,30.67,-69.82
231,2253637627,-0.0391,-1.3394,0.3413,3.05,30.43,-73.41
232,2253642627,-0.0269,-1.3545,0.3516,3.60,30.12,-77.32
233,2253647632,-0.0356,-1.3735,0.3647,5.43,29.76,-81.52
234,2253652627,-0.0439,-1.3877,0.3745,8.54,29.39,-86.10
235,2253657627,-0.0562,-1.3955,0.3818,12.80,29.15,-90.98
236,2253662632,-0.0615,-1.4082,0.3877,17.68,28.60,-96.10
237,2253667628,-0.0723,-1.4136,0.3979,23.23,28.17,-101.40
238,2253672629,-0.0762,-1.4204,0.3936,29.27,27.56,-106.89
239,2253677627,-0.0801,-1.4194,0.4023,35.24,26.89,-112.38
240,2253682629,-0.0811,-1.4180,0.4131,41.04,26.28,-118.05
241,2253687628,-0.0796,-1.4136,0.4136,46.10,25.37,-123.60
242,2253692629,-0.0752,-1.4121,0.4214,50.43,24.76,-128.84
243,2253697629,-0.0664,-1.4102,0.4302,53.96,23.84,-133.90
244,2253702629,-0.0435,-1.3892,0.4355,57.20,22.80,-138.78
245,2253707628,-0.0366,-1.3735,0.4429,60.18,21.77,-143.54
246,2253712629,-0.0244,-1.3618,0.4404,62.99,20.61,-147.99
247,2253717627,-0.0098,-1.3325,0.4517,65.37,18.96,-152.07
248,2253722629,-0.0024,-1.2969,0.4521,67.13,17.26,-155.85
249,2253727628,0.0049,-1.2651,0.4609,68.11,15.37,-159.15
250,2253732629,0.0146,-1.2202,0.4648,68.05,13.29,-162.26
251,2253737627,0.0337,-1.1694,0.4614,67.07,11.34,-164.63
252,2253742629,0.0444,-1.1211,0.4648,65.43,9.21,-166.34
253,2253747629,0.0415,-1.0684,0.4629,62.93,7.01,-167.50
254,2253752629,0.0513,-1.0054,0.4551,59.63,5.12,-167.99
255,2253757627,0.0669,-0.9360,0.4463,55.79,3.11,-167.68
256,2253762629,0.0879,-0.8677,0.4399,51.28,1.28,-166.77
257,2253767630,0.1226,-0.7915,0.4316,46.16,-0.06,-164.94
258,2253772627,0.1543,-0.7275,0.4336,40.43,-1.28,-162.26
259,2253777627,0.1782,-0.6587,0.4277,34.33,-2.20,-158.84
260,2253782627,0.2036,-0.5942,0.4121,28.35,-2.93,-154.51
261,2253787627,0.2397,-0.5391,0.3984,22.93,-3.35,-149.57
262,2253792627,0.2480,-0.4829,0.3799,18.05,-3.60,-143.84
263,2253797627,0.2168,-0.4150,0.3794,13.60,-3.90,-137.80
264,2253803389,0.1831,-0.3398,0.3584,9.82,-3.90,-130.12
265,2253807632,0.1802,-0.3081,0.3423,8.35,-3.66,-124.70
266,2253812628,0.1724,-0.2437,0.3145,7.44,-3.60,-116.46
267,2253817662,0.1499,-0.2012,0.2944,7.56,-3.90,-110.85
268,2253822687,0.1157,-0.1621,0.2925,8.35,-4.09,-103.60
269,2253827627,0.0874,-0.1250,0.2842,9.21,-4.27,-96.34
270,2253832627,0.0757,-0.1006,0.2773,10.30,-4.45,-88.84
271,2253837627,0.0874,-0.0615,0.2466,11.71,-4.33,-80.85
272,2253842627,0.1533,-0.0293,0.2412,13.84,-4.70,-72.74
273,2253847629,0.1738,-0.0435,0.2290,16.77,-5.24,-64.21
274,2253852628,0.1733,-0.0249,0.2075,19.45,-5.73,-55.18
275,2253857629,0.1782,-0.0156,0.1919,21.83,-6.65,-46.16
276,2253862627,0.2119,-0.0400,0.1968,23.11,-7.38,-36.83
277,2253867642,0.2715,-0.0664,0.1885,23.11,-7.80,-27.13
278,2253872627,0.3042,-0.0952,0.1772,21.46,-8.35,-17.68
279,2253877627,0.3057,-0.1274,0.1680,17.62,-9.02,-8.48
280,2253882627,0.3032,-0.1714,0.1953,10.98,-9.39,0.18
281,2253887627,0.3174,-0.2368,0.2134,1.95,-9.63,8.11
282,2253892697,0.3477,-0.3071,0.2285,-10.67,-9.76,16.77
283,2253897627,0.3521,-0.3594,0.2466,-19.39,-9.70,21.83
284,2253902631,0.3413,-0.4536,0.2764,-31.34,-9.70,28.35
285,2253907628,0.3364,-0.5146,0.2905,-37.87,-9.76,31.89
286,2253912631,0.3291,-0.5830,0.3091,-43.05,-9.70,35.43
287,2253917627,0.3296,-0.6641,0.3213,-44.57,-9.94,38.17
288,2253922627,0.3398,-0.7578,0.3320,-41.95,-10.18,40.06
289,2253927629,0.3545,-0.8477,0.3281,-35.24,-10.61,41.16
290,2253932628,0.3721,-0.9463,0.3433,-25.12,-11.28,41.65
291,2253937629,0.4014,-1.0376,0.3530,-12.87,-11.83,41.40
292,2253942627,0.4258,-1.1211,0.3564,0.00,-12.44,40.12
293,2253947627,0.4395,-1.2046,0.3560,11.59,-13.05,37.93
294,2253952629,0.4565,-1.2812,0.3740,20.30,-13.66,34.76
295,2253957629,0.4663,-1.3496,0.3862,25.00,-14.27,30.61
296,2253962627,0.4644,-1.4072,0.4014,25.43,-14.45,25.49
297,2253967629,0.4556,-1.4683,0.3999,22.07,-14.88,19.57
298,2253972627,0.4565,-1.5103,0.4019,16.16,-15.30,12.74
299,2253977627,0.4546,-1.5488,0.4072,8.29,-15.85,5.12
300,2253982627,0.4575,-1.5757,0.4121,-0.49,-16.46,-2.80
301,2253987627,0.4595,-1.5957,0.4028,-9.45,-16.89,-11.28
302,2253992627,0.4570,-1.6128,0.3999,-17.74,-17.44,-20.06
303,2253997627,0.4575,-1.6147,0.3931,-24.63,-18.05,-29.15
304,2254002627,0.4507,-1.6230,0.3823,-30.24,-18.48,-38.23
305,2254007627,0.4487,-1.6235,0.3794,-34.39,-18.90,-47.26
306,2254012627,0.4453,-1.6118,0.3711,-36.95,-18.96,-56.16
307,2254017627,0.4434,-1.6021,0.3706,-37.50,-18.66,-65.00
308,2254022654,0.4453,-1.5723,0.3525,-35.06,-17.93,-74.94
309,2254027629,0.4580,-1.5381,0.3428,-30.61,-17.20,-82.74
310,2254032629,0.4512,-1.4893,0.3306,-24.88,-16.40,-89.82
311,2254037628,0.4551,-1.4424,0.3242,-19.88,-15.67,-95.18
312,2254042627,0.4658,-1.3804,0.3174,-13.60,-14.45,-101.16
313,2254047629,0.4751,-1.3032,0.3003,-6.59,-12.93,-107.32
314,2254052629,0.4785,-1.2300,0.2910,-1.89,-11.71,-111.59
315,2254057628,0.4756,-1.1680,0.2798,0.67,-10.55,-114.63
316,2254062629,0.4619,-1.0747,0.2798,2.32,-8.78,-118.29
317,2254067627,0.4580,-1.0063,0.2725,2.13,-7.50,-120.06
318,2254072630,0.4409,-0.9004,0.2573,0.30,-5.55,-121.89
319,2254077628,0.4199,-0.8081,0.2495,-2.13,-3.66,-122.50
320,2254082627,0.4004,-0.7207,0.2422,-4.94,-1.89,-122.32
321,2254087631,0.3965,-0.6274,0.2339,-7.38,-0.12,-121.28
322,2254092629,0.3823,-0.5459,0.2261,-9.02,1.83,-119.39
323,2254097628,0.3247,-0.4438,0.2041,-9.33,3.54,-116.77
324,2254102629,0.2681,-0.3511,0.1890,-8.48,5.49,-113.23
325,2254107627,0.2559,-0.2495,0.1865,-6.83,7.20,-108.72
326,2254112629,0.2583,-0.1431,0.1831,-4.82,8.72,-103.23
327,2254117629,0.2603,-0.0420,0.1782,-2.80,10.43,-96.46
328,2254122631,0.2539,0.0605,0.1841,-0.91,12.01,-88.72
329,2254127627,0.2363,0.1602,0.1724,1.16,13.72,-79.51
330,2254132629,0.2168,0.2515,0.1758,3.05,15.12,-69.02
331,2254137628,0.2051,0.3311,0.1704,4.51,16.71,-57.38
332,2254142629,0.2300,0.4209,0.1743,5.55,18.17,-44.51
333,2254147627,0.2300,0.4912,0.1650,7.01,19.45,-30.61
334,2254152777,0.2095,0.5542,0.1479,8.60,20.37,-15.61
335,2254157629,0.2124,0.6118,0.1372,10.24,20.98,0.43
336,2254162629,0.2056,0.6514,0.1338,11.95,21.22,17.13
337,2254167629,0.1968,0.6899,0.1221,14.09,21.40,34.63
338,2254172628,0.1772,0.7231,0.0879,17.01,21.28,52.56
339,2254177629,0.1733,0.7202,0.0713,20.43,20.85,70.91
340,2254182629,0.1958,0.7085,0.0649,23.05,20.43,89.33
341,2254187629,0.1836,0.7046,0.0708,23.66,20.06,108.23
342,2254192627,0.1592,0.6870,0.0786,22.20,20.00,126.65
343,2254197631,0.1606,0.6445,0.0762,18.78,19.94,144.82
344,2254202629,0.1650,0.5933,0.0889,14.27,19.94,162.56
345,2254207629,0.1558,0.5430,0.0854,9.63,20.06,180.00
346,2254212629,0.1372,0.4761,0.0918,5.24,19.88,197.01
347,2254217630,0.1636,0.3691,0.1064,1.22,19.88,213.84
348,2254222628,0.2197,0.2295,0.1362,-2.56,19.82,230.37
349,2254227630,0.2896,0.0762,0.1523,-6.22,19.76,246.52
350,2254232629,0.3252,-0.0649,0.1797,-10.00,19.39,261.34
351,2254237628,0.3081,-0.2158,0.2056,-14.09,18.84,274.02
352,2254242629,0.2847,-0.4111,0.2388,-18.05,17.87,283.96
353,2254247627,0.2510,-0.5942,0.2700,-20.91,16.59,290.85
354,2254252629,1.3086,-6.7686,0.5093,-10.30,9.70,279.15
355,2254257628,0.5210,-11.4043,0.0591,-1.34,12.07,140.98
356,2254262629,0.5371,-3.9297,-0.3794,-17.50,22.07,52.68
357,2254267627,0.5391,-1.6934,0.2607,0.06,26.22,22.74
358,2254272629,0.7261,-1.3403,0.8203,18.41,20.24,9.21
359,2254277628,0.6465,-1.3950,0.5273,27.74,15.85,3.84
360,2254282629,0.5581,-1.6470,0.1895,22.74,16.34,0.85
361,2254287627,0.5312,-1.7642,0.5610,13.23,15.37,-2.62
362,2254292844,0.4946,-1.7002,0.7549,5.12,12.38,-8.17
363,2254297629,0.4102,-1.5347,0.4385,-2.38,10.43,-15.18
364,2254302628,0.3516,-1.4570,0.3760,-11.71,9.57,-23.23
365,2254307627,0.3306,-1.5347,0.6509,-20.61,6.71,-32.07
366,2254312627,0.3271,-1.6934,0.6289,-28.17,3.66,-41.65
367,2254317629,0.2832,-1.8350,0.4561,-33.29,1.71,-52.13
368,2254322627,0.2505,-1.8950,0.5474,-35.55,-0.43,-63.48
369,2254327628,0.2295,-1.8740,0.6714,-34.51,-3.29,-75.37
370,2254333517,0.2065,-1.8193,0.5557,-29.94,-5.24,-87.80
371,2254337629,0.1772,-1.7495,0.4727,-23.05,-6.77,-100.24
372,2254342629,0.1416,-1.6904,0.5752,-15.37,-8.54,-112.38
373,2254347629,0.1221,-1.6401,0.6157,-7.87,-10.12,-123.90
374,2254352628,0.1167,-1.5889,0.5073,-0.55,-11.04,-134.57
375,2254357629,0.1001,-1.4980,0.4756,5.85,-11.46,-144.15
376,2254362629,0.0762,-1.3540,0.5083,10.37,-12.20,-152.13
377,2254367629,0.0874,-1.1548,0.4478,12.26,-12.99,-158.78
378,2254372628,0.1182,-0.9556,0.3667,10.55,-12.99,-163.90
379,2254377630,0.1250,-0.7588,0.3589,4.57,-12.87,-167.26
380,2254382629,0.1230,-0.5732,0.3584,-5.49,-12.74,-168.60
381,2254387629,0.1323,-0.4043,0.2949,-17.99,-11.95,-167.93
382,2254392628,0.1567,-0.2314,0.2437,-31.77,-10.73,-164.63
383,2254397629,0.1953,-0.0420,0.2520,-45.55,-9.39,-158.96
384,2254402629,0.2207,0.1538,0.2461,-57.87,-7.56,-150.55
385,2254407629,0.2222,0.3516,0.2065,-67.62,-5.43,-139.21
386,2254412628,0.2192,0.5840,0.1675,-74.39,-3.48,-124.76
387,2254417629,0.3853,0.8037,0.2544,-76.52,-1.46,-107.87
388,2254422629,0.3892,0.9316,0.2896,-72.93,0.85,-87.01
389,2254427629,0.3955,1.1348,0.2363,-63.23,2.50,-62.68
390,2254432697,0.4019,1.2876,0.2559,-47.80,3.29,-35.55
391,2254437628,0.3784,1.4331,0.3052,-28.90,4.02,-5.91
392,2254442810,0.3433,1.5522,0.2988,-8.17,4.09,25.30
393,2254447629,0.2925,1.6445,0.2646,12.68,3.54,57.50
394,2254452628,0.2241,1.6880,0.2822,31.95,2.56,90.24
395,2254457641,0.1538,1.6851,0.2871,48.90,1.65,123.17
396,2254462629,0.0942,1.6548,0.2500,62.99,0.73,155.79
397,2254467629,0.0205,1.5845,0.2158,73.96,-0.12,188.11
398,2254472628,-0.0576,1.4966,0.2129,82.01,-0.49,219.63
399,2254477629,-0.1431,1.3579,0.2056,87.26,-0.55,249.88
400,2254482629,-0.1904,1.1567,0.1724,89.82,0.00,278.84
401,2254487629,-0.2168,0.9185,0.1470,89.02,0.91,305.73
402,2254492628,-0.2603,0.6885,0.1479,83.48,2.07,329.57
403,2254497629,1.1060,-6.7085,-0.3442,68.11,4.15,338.48
404,2254502630,0.5386,-11.4668,-0.5977,-18.54,25.43,124.21
405,2254507629,0.6499,-1.0645,-0.5161,-58.66,31.04,32.93
406,2254512628,0.4814,0.5640,0.1572,-29.51,25.37,2.56
407,2254517629,0.3027,-0.5659,1.0254,18.78,16.71,-4.15
408,2254522629,0.4756,-1.5107,0.6367,46.95,13.17,-2.44
409,2254527630,0.3735,-1.9873,0.2188,38.17,14.51,5.06
410,2254532628,0.4058,-1.5718,0.4468,12.20,13.66,14.51
411,2254537629,0.4292,-0.7217,0.5444,-10.61,11.04,21.10
412,2254542629,0.3525,0.0449,0.2393,-22.80,11.10,24.21
413,2254547629,0.2852,0.3149,0.2012,-32.87,12.68,26.77
414,2254552628,0.2686,-0.0776,0.3662,-44.94,12.50,30.91
415,2254557765,0.2632,-0.7349,0.2305,-55.85,11.89,36.89
416,2254562629,0.2554,-1.1714,0.0215,-63.05,12.44,43.23
417,2254567628,0.2388,-1.1431,0.1040,-65.55,12.93,48.90
418,2254572629,0.2114,-0.7856,0.1987,-64.45,13.17,53.29
419,2254577627,0.1719,-0.4180,0.0664,-60.61,14.33,56.34
420,2254582628,0.1357,-0.2778,0.0068,-55.06,16.34,58.60
421,2254587627,0.1177,-0.4297,0.1182,-48.29,18.17,60.61
422,2254592627,0.1001,-0.7358,0.1250,-40.98,19.70,62.56
423,2254597629,0.0933,-0.9805,0.0342,-33.60,21.89,64.39
424,2254602629,0.0859,-1.0288,0.0532,-26.40,24.45,65.67
425,2254607629,0.0708,-0.9077,0.1240,-20.24,26.71,66.34
426,2254612844,0.0640,-0.7349,0.0898,-14.82,29.70,66.34
427,2254617629,0.0713,-0.6450,0.0317,-10.73,33.05,66.16
428,2254622629,0.0923,-0.6636,0.0762,-8.23,36.10,65.91
429,2254627629,0.1167,-0.7734,0.1089,-7.87,38.84,65.85
430,2254632628,0.1362,-0.9004,0.0903,-9.70,41.59,66.16
431,2254637643,0.1572,-0.9478,0.0933,-13.72,44.15,66.52
432,2254642627,0.1777,-0.9121,0.1421,-19.82,46.22,67.07
433,2254647629,0.2017,-0.8286,0.1509,-27.20,47.80,67.38
434,2254652629,0.2197,-0.7617,0.1382,-35.30,49.27,67.93
435,2254657629,0.2412,-0.7368,0.1533,-43.41,50.24,68.35
436,2254662628,0.2588,-0.7607,0.1865,-50.98,51.04,69.02
437,2254667629,0.2695,-0.8071,0.1860,-57.62,51.28,69.88
438,2254672629,0.2749,-0.8423,0.1768,-62.93,51.52,71.04
439,2254677629,0.2852,-0.8359,0.2021,-66.40,51.46,72.32
440,2254682629,0.2930,-0.8027,0.2202,-67.80,51.22,73.66
441,2254687629,0.3140,-0.7656,0.2178,-66.77,51.04,75.00
442,2254692629,0.3320,-0.7520,0.2178,-63.29,50.79,76.34
443,2254697629,0.3535,-0.7622,0.2271,-57.80,50.06,77.99
444,2254702628,0.3857,-0.7969,0.2271,-50.98,49.02,79.76
445,2254707629,0.4214,-0.8218,0.2246,-43.60,48.05,81.59
446,2254712629,0.4287,-0.8364,0.2388,-36.89,46.71,83.17
447,2254717629,0.4097,-0.8516,0.2622,-31.16,45.49,84.33
448,2254722630,0.3975,-0.8687,0.2729,-26.89,44.33,85.55
449,2254727629,0.3955,-0.8916,0.2700,-23.66,43.23,85.79
450,2254732627,0.3813,-0.9141,0.2822,-21.46,42.07,86.40
451,2254737629,0.3672,-0.9487,0.2783,-20.30,40.91,85.49
452,2254742629,0.3481,-0.9805,0.2744,-20.24,39.57,85.55
453,2254747628,0.3491,-1.0093,0.2822,-21.59,38.17,84.57
454,2254752629,0.3438,-1.0215,0.2876,-24.39,36.77,83.29
455,2254757628,0.3491,-1.0483,0.2910,-28.35,35.61,82.07
456,2254762627,0.3384,-1.0640,0.2822,-33.17,34.39,80.79
457,2254767629,0.3301,-1.0811,0.2832,-38.35,32.99,79.21
458,2254772629,0.3301,-1.0986,0.2852,-43.60,31.04,77.50
459,2254777629,0.3203,-1.1157,0.2881,-48.90,29.33,75.67
460,2254782628,0.3091,-1.1377,0.2920,-53.78,27.38,73.72
461,2254787629,0.3193,-1.1504,0.2954,-57.44,25.37,71.65
462,2254792629,0.3267,-1.1655,0.2910,-59.57,23.48,69.15
463,2254797629,0.3081,-1.1821,0.2827,-59.76,21.28,66.65
464,2254802628,0.2759,-1.1968,0.2734,-58.29,19.15,63.72
465,2254807629,0.2588,-1.2104,0.2676,-55.30,17.01,60.61
466,2254812629,0.2534,-1.2251,0.2632,-51.28,14.88,57.50
467,2254817629,0.2539,-1.2383,0.2632,-46.95,12.80,54.21
468,2254822628,0.2520,-1.2451,0.2642,-42.50,10.91,51.10
469,2254827629,0.2437,-1.2510,0.2612,-38.48,8.90,47.87
470,2254832627,0.2329,-1.2554,0.2539,-35.12,6.95,44.88
471,2254837629,0.2314,-1.2603,0.2603,-32.68,4.63,41.77
472,2254842629,0.2485,-1.2676,0.2622,-31.34,2.44,38.90
473,2254847630,0.2573,-1.2739,0.2632,-31.34,0.00,36.28
474,2254852628,0.2598,-1.2729,0.2676,-32.50,-2.20,33.90
475,2254857629,0.2671,-1.2764,0.2734,-34.63,-4.45,31.46
476,2254862943,0.2773,-1.2764,0.2593,-37.56,-6.95,29.27
477,2254867629,0.2778,-1.2793,0.2612,-40.37,-9.27,27.01
478,2254872629,0.2510,-1.2886,0.2539,-42.87,-11.59,24.57
479,2254877629,0.2197,-1.2939,0.2378,-44.82,-13.84,22.13
480,2254882628,0.1943,-1.3018,0.2202,-46.04,-16.16,19.57
481,2254887629,0.1616,-1.2983,0.2109,-46.46,-18.41,16.89
482,2254892629,0.1445,-1.2876,0.2095,-46.46,-20.61,14.21
483,2254897629,0.1299,-1.2759,0.1938,-46.04,-22.87,11.28
484,2254902628,0.1235,-1.2627,0.1943,-45.18,-24.76,8.48
485,2254907629,0.0889,-1.3286,0.1128,-44.15,-26.22,5.49
486,2254912629,0.0640,-1.2607,0.1196,-44.88,-28.48,2.50
487,2254917629,0.1597,-1.2007,0.0762,-45.61,-29.70,-1.28
488,2254922628,0.1333,-1.2363,0.1084,-45.43,-30.43,-4.02
489,2254927629,0.0776,-1.2393,0.1660,-44.82,-32.07,-6.34
490,2254932629,0.0806,-1.2222,0.1167,-44.02,-33.84,-8.60
491,2254937630,0.1040,-1.2144,0.0425,-42.74,-35.24,-10.73
492,2254942627,0.0972,-1.1953,0.0562,-41.65,-36.52,-12.74
493,2254947629,0.0869,-1.1821,0.0913,-41.28,-38.29,-14.51
494,2254952629,0.0811,-1.1802,0.0562,-41.28,-39.57,-16.10
495,2254957629,0.0791,-1.1826,0.0156,-42.26,-40.73,-17.56
496,2254962628,0.0820,-1.2017,0.0303,-43.90,-41.83,-18.90
497,2254967629,0.0522,-1.2236,-0.0103,-46.77,-42.68,-20.37
498,2254972627,0.0532,-1.2251,-0.1108,-50.91,-43.05,-21.89
499,2254977629,0.0254,-1.2280,-0.1230,-55.37,-43.17,-23.41
500,2254982629,-0.0005,-1.2144,-0.1309,-60.30,-43.66,-25.06
501,2254987629,-0.0059,-1.1870,-0.1851,-66.28,-43.96,-26.65
502,2254992628,0.0303,-1.1562,-0.1997,-73.05,-43.90,-28.35
503,2254997629,0.0483,-1.1382,-0.1499,-79.63,-43.72,-30.00
504,2255002629,0.0361,-1.1343,-0.1196,-85.61,-43.35,-31.71
505,2255007629,0.0225,-1.1357,-0.1450,-90.49,-42.80,-33.23
506,2255012628,0.0127,-1.1216,-0.1465,-93.84,-41.95,-34.45
507,2255017629,0.0283,-1.1177,-0.1226,-95.18,-41.16,-35.91
508,2255022627,0.0366,-1.1191,-0.1289,-94.57,-40.06,-37.07
509,2255027629,0.0503,-1.1162,-0.1406,-91.71,-38.90,-38.29
510,2255032629,0.0532,-1.1230,-0.1313,-86.59,-37.80,-39.57
511,2255037629,0.0557,-1.1387,-0.1216,-79.63,-36.71,-41.10
512,2255042628,0.0410,-1.1504,-0.0977,-70.79,-35.79,-42.56
513,2255047630,0.0176,-1.1445,-0.0835,-60.79,-35.18,-44.02
514,2255052627,0.0586,-1.1357,-0.0669,-50.49,-34.70,-45.55
515,2255058172,0.0664,-1.1152,-0.0747,-40.85,-34.33,-46.95
516,2255062629,0.0503,-1.0742,-0.0801,-31.95,-33.90,-47.99
517,2255067628,0.0376,-1.0493,-0.0786,-24.27,-33.60,-48.90
518,2255072627,0.0151,-1.0488,-0.1392,-18.48,-33.60,-49.57
519,2255077628,0.0039,-1.0293,-0.1494,-14.94,-33.96,-49.88
520,2255082629,0.0020,-1.0073,-0.1509,-13.54,-34.09,-50.00
521,2255087628,0.0015,-0.9780,-0.1460,-13.48,-34.02,-49.88
522,2255092629,0.0073,-0.8828,-0.1587,-14.63,-33.66,-49.76
523,2255097628,0.0156,-0.8481,-0.1479,-16.52,-33.35,-50.18
524,2255102627,0.0317,-0.8999,-0.1670,-18.54,-33.17,-50.06
525,2255107627,-0.0166,-0.8774,-0.2056,-21.95,-32.62,-50.06
526,2255112627,-0.0332,-0.9067,-0.1709,-26.83,-32.26,-50.18
527,2255117627,-0.0156,-0.9443,-0.0967,-31.40,-31.77,-50.12
528,2255122629,0.0010,-0.9429,-0.0957,-34.57,-31.52,-50.37
529,2255127627,0.0352,-0.9556,-0.1055,-36.28,-31.28,-51.10
530,2255132632,0.0298,-0.9863,-0.1050,-36.28,-31.22,-51.22
531,2255137631,0.0444,-0.9556,-0.0898,-34.39,-31.04,-51.28
532,2255142631,0.0669,-0.9263,-0.0869,-31.95,-30.30,-51.40
533,2255147628,0.0396,-0.9648,-0.1162,-28.72,-28.96,-51.46
534,2255152653,0.0249,-0.9561,-0.1650,-24.51,-27.74,-51.22
535,2255157629,0.0342,-0.9761,-0.1836,-20.00,-27.26,-51.22
536,2255162629,0.0200,-1.0332,-0.2109,-15.30,-26.59,-50.55
537,2255167629,0.0234,-1.0659,-0.2251,-10.37,-25.67,-49.09
538,2255172983,0.0635,-0.9927,-0.2324,-6.04,-24.88,-47.74
539,2255177629,0.0859,-0.9795,-0.1841,-2.13,-24.09,-46.89
540,2255182628,0.1060,-0.9751,-0.1724,1.52,-23.23,-46.22
541,2255187629,0.0884,-0.9868,-0.1626,5.06,-22.20,-45.73
542,2255192628,0.0039,-1.0850,-0.1675,8.96,-20.98,-44.70
543,2255197631,0.0391,-0.9390,-0.1494,13.48,-19.39,-43.29
544,2255202627,0.1079,-0.8687,-0.1558,17.32,-17.68,-42.74
545,2255207629,0.1499,-0.9038,-0.2520,21.10,-15.55,-42.20
546,2255212627,0.1646,-0.9453,-0.3159,24.82,-14.76,-41.04
547,2255217628,0.1416,-0.9849,-0.2402,28.78,-15.00,-39.33
548,2255222629,0.0957,-1.0054,-0.2051,32.62,-15.12,-37.32
549,2255227627,0.0737,-0.9819,-0.2280,35.73,-15.30,-35.24
550,2255232629,0.0864,-0.9561,-0.1953,38.23,-15.49,-33.23
551,2255237628,0.0996,-0.9561,-0.1436,39.57,-15.37,-31.16
552,2255242627,0.1060,-0.9580,-0.1157,39.70,-14.82,-28.66
553,2255247629,0.1108,-0.9375,-0.1167,38.35,-13.96,-26.04
554,2255252630,0.1016,-0.9297,-0.1118,35.67,-13.48,-23.41
555,2255257627,0.0771,-0.9531,-0.0894,31.59,-12.99,-20.49
556,2255262629,0.0806,-0.9160,-0.1084,26.40,-12.56,-17.44
557,2255267629,0.1206,-0.8467,-0.1353,20.79,-12.74,-15.00
558,2255272629,0.1499,-0.8491,-0.1187,15.91,-13.17,-12.93
559,2255277627,0.1641,-0.9067,-0.1152,11.77,-14.33,-10.91
560,2255282629,0.1592,-0.9463,-0.1235,8.66,-16.04,-8.29
561,2255287627,0.1587,-0.8809,-0.0986,6.59,-18.35,-6.22
562,2255292628,0.1455,-0.8872,-0.0669,5.12,-20.55,-4.51
563,2255297629,0.1270,-0.8779,-0.0659,4.21,-22.99,-2.99
564,2255302628,0.1074,-0.8872,-0.0688,3.72,-25.37,-1.59
565,2255307627,0.0771,-0.8901,-0.0532,3.23,-27.99,-0.30
566,2255312627,0.0483,-0.8623,-0.0479,2.56,-30.18,0.61
567,2255317629,0.0376,-0.8364,-0.0303,1.77,-31.95,1.04
568,2255322628,0.0474,-0.8364,-0.0347,0.18,-33.84,0.73
569,2255327627,0.0557,-0.8613,-0.0347,-2.26,-35.37,0.06
570,2255332630,0.0483,-0.8989,-0.0596,-5.85,-36.59,-0.67
571,2255337628,0.0366,-0.9180,-0.0811,-10.00,-37.62,-1.22
572,2255342629,0.0181,-0.9009,-0.0947,-14.45,-38.05,-1.77
573,2255347631,0.0103,-0.8960,-0.1196,-19.15,-38.41,-2.32
574,2255352627,0.0151,-0.9019,-0.1255,-23.84,-38.48,-2.93
575,2255357627,0.0205,-0.9062,-0.1240,-28.54,-38.29,-3.48
576,2255362627,0.0181,-0.9092,-0.1206,-32.74,-37.74,-3.90
577,2255367629,0.0112,-0.9087,-0.1235,-36.28,-37.07,-4.21
578,2255372629,0.0146,-0.9043,-0.1353,-38.78,-36.40,-4.27
579,2255377628,0.0161,-0.9014,-0.1455,-40.00,-35.43,-4.21
580,2255382627,0.0151,-0.8989,-0.1582,-39.82,-34.63,-4.02
581,2255387629,0.0122,-0.8853,-0.1611,-38.05,-33.60,-3.54
582,2255392629,0.0005,-0.8818,-0.1631,-35.18,-32.50,-3.23
583,2255397628,-0.0059,-0.8823,-0.1675,-31.46,-31.40,-2.62
584,2255402628,-0.0088,-0.8809,-0.1768,-27.32,-30.24,-2.07
585,2255407629,-0.0229,-0.8711,-0.1836,-23.23,-29.09,-1.34
586,2255412888,-0.0210,-0.8643,-0.1914,-19.45,-27.93,-0.61
587,2255417629,-0.0234,-0.8667,-0.1895,-16.34,-26.65,0.18
588,2255422628,-0.0278,-0.8584,-0.1841,-13.60,-25.24,1.16
589,2255427629,-0.0215,-0.8491,-0.1816,-11.16,-23.54,2.07
590,2255432627,-0.0093,-0.8462,-0.1870,-9.02,-22.13,3.17
591,2255437628,-0.0161,-0.8413,-0.1802,-6.71,-20.49,4.27
592,2255442629,-0.0229,-0.8428,-0.1714,-4.09,-18.84,5.30
593,2255447627,-0.0342,-0.8462,-0.1685,-1.52,-17.44,6.52
594,2255452629,-0.0283,-0.8442,-0.1699,0.91,-15.79,7.80
595,2255457629,-0.0171,-0.8374,-0.1709,3.48,-14.27,9.09
596,2255462628,-0.0176,-0.8452,-0.1660,5.79,-12.68,10.30
597,2255467629,-0.0312,-0.8442,-0.1616,8.05,-11.28,11.40
598,2255472629,-0.0430,-0.8433,-0.1528,10.37,-9.88,12.50
599,2255477628,-0.0435,-0.8516,-0.1494,12.50,-8.54,13.35
600,2255482629,-0.0464,-0.8633,-0.1499,14.39,-7.44,14.15
601,2255487627,-0.0513,-0.8735,-0.1421,16.16,-6.71,14.51
602,2255492629,-0.0605,-0.8960,-0.1094,18.23,-6.16,14.63
603,2255497629,-0.0640,-0.8896,-0.1328,19.63,-6.22,14.63
604,2255502628,-0.0518,-0.8677,-0.1294,19.82,-6.52,14.88
605,2255507628,-0.0420,-0.8442,-0.1289,19.21,-6.71,15.12
606,2255512629,-0.0591,-0.8350,-0.1338,17.99,-6.95,15.55
607,2255517629,-0.0718,-0.8213,-0.1250,16.40,-7.07,16.28
608,2255522628,-0.0693,-0.8057,-0.1201,14.94,-7.32,16.95
609,2255527627,-0.0615,-0.7988,-0.1226,13.48,-7.32,17.87
610,2255533086,-0.0630,-0.7939,-0.1255,12.07,-7.50,19.09
611,2255537629,-0.0723,-0.7905,-0.1221,10.49,-7.44,20.43
612,2255542628,-0.0654,-0.7896,-0.1206,8.90,-7.32,21.95
613,2255547629,-0.0625,-0.7900,-0.1191,7.68,-6.77,23.48
614,2255552630,-0.0688,-0.7915,-0.1245,6.89,-6.28,24.94
615,2255557627,-0.0815,-0.8003,-0.1138,6.83,-5.67,26.34
616,2255562629,-0.0776,-0.8003,-0.1147,7.38,-4.94,27.44
617,2255567628,-0.0728,-0.8057,-0.1279,8.23,-4.27,28.54
618,2255572629,-0.0659,-0.8105,-0.1333,9.33,-3.35,29.63
619,2255577627,-0.0557,-0.8145,-0.1274,10.61,-2.38,30.67
620,2255582629,-0.0405,-0.8105,-0.1270,12.44,-1.52,31.77
621,2255587628,-0.0293,-0.8042,-0.1099,14.51,-0.91,32.99
622,2255592629,-0.0464,-0.8247,-0.0786,16.95,-0.73,34.09
623,2255597627,-0.0195,-0.8320,-0.0688,19.21,-0.61,35.37
624,2255602629,-0.0420,-0.8623,-0.1030,20.61,0.30,37.01
625,2255607628,-0.0425,-0.8091,-0.1372,22.62,1.16,38.66
626,2255612629,-0.0396,-0.7485,-0.1626,23.72,1.28,39.82
627,2255617627,-0.0708,-0.8242,-0.0195,25.00,0.85,41.16
628,2255622629,-0.0449,-0.8730,-0.0371,26.40,0.67,42.50
629,2255627628,-0.0757,-0.8779,-0.1699,26.89,2.01,43.72
630,2255632629,-0.1108,-0.9072,-0.0557,27.32,2.93,44.70
631,2255637627,-0.0884,-0.8965,-0.0078,27.99,1.95,45.61
632,2255642629,-0.1143,-0.8296,-0.2017,28.41,3.17,46.28
633,2255647628,-0.1094,-0.8257,-0.1177,28.23,4.33,46.83
634,2255652629,-0.1338,-0.8252,-0.0791,27.93,4.33,47.62
635,2255657627,-0.1333,-0.8442,-0.0737,27.62,4.15,48.11
636,2255662629,-0.1362,-0.8911,-0.0508,26.95,3.90,48.78
637,2255667628,-0.1304,-0.9033,-0.0679,26.16,3.66,49.57
638,2255672629,-0.1206,-0.8872,-0.0669,25.55,3.72,50.24
639,2255677627,-0.1162,-0.8716,-0.0591,25.49,3.90,51.16
640,2255682629,-0.1060,-0.8643,-0.0547,25.67,3.78,52.07
641,2255687629,-0.0874,-0.8716,-0.0571,26.46,3.35,53.23
642,2255692628,-0.0845,-0.8789,-0.0620,27.93,3.11,54.45
643,2255697629,-0.0747,-0.8779,-0.0742,29.63,3.05,55.73
644,2255702628,-0.0757,-0.8740,-0.0820,31.40,3.11,57.01
645,2255707629,-0.0811,-0.8721,-0.0908,32.99,2.93,58.35
646,2255712629,-0.0845,-0.8804,-0.0933,34.02,2.87,59.39
647,2255717629,-0.0859,-0.8916,-0.0869,34.63,2.87,60.30
648,2255722628,-0.0928,-0.9019,-0.0967,34.82,2.99,61.16
649,2255727629,-0.1099,-0.9155,-0.0894,34.33,2.87,61.59
650,2255732629,-0.1270,-0.9365,-0.0864,33.84,2.74,61.89
651,2255737629,-0.1289,-0.9497,-0.0796,33.35,2.74,62.01
652,2255742628,-0.1235,-0.9634,-0.0869,32.99,2.56,62.13
653,2255747629,-0.1323,-0.9707,-0.0801,32.93,2.62,61.89
654,2255752629,-0.1367,-0.9775,-0.0781,32.74,2.44,61.71
655,2255757629,-0.1426,-0.9888,-0.0659,32.20,2.44,61.52
656,2255762628,-0.1499,-0.9883,-0.0688,31.52,2.38,61.28
657,2255768165,-0.1538,-0.9941,-0.0625,30.55,2.44,61.16
658,2255772629,-0.1670,-1.0015,-0.0483,29.51,2.44,61.04
659,2255777628,-0.1831,-0.9810,-0.0659,29.39,2.80,60.91
660,2255782631,-0.1816,-0.9873,-0.0044,29.82,2.56,60.67
661,2255787712,-0.2227,-1.0078,-0.0449,29.45,1.83,60.61
662,2255792629,-0.1851,-0.9902,-0.1191,28.60,1.77,60.67
663,2255797628,-0.1704,-0.9663,-0.0449,28.54,1.65,60.73
664,2255802629,-0.1792,-0.9624,0.0127,28.78,1.46,60.79
665,2255807627,-0.1797,-0.9707,-0.0063,28.84,1.28,60.73
666,2255812630,-0.1680,-0.9854,-0.0288,28.96,0.61,60.79
667,2255817628,-0.1577,-0.9839,-0.0171,29.33,0.30,60.91
668,2255822629,-0.1396,-0.9751,-0.0112,29.88,-0.37,61.22
669,2255827627,-0.1362,-0.9683,-0.0376,30.79,-0.85,61.52
670,2255832629,-0.1357,-0.9634,-0.0586,31.59,-1.10,62.07
671,2255837716,-0.1704,-0.9619,-0.0581,30.73,-2.20,62.62
672,2255842629,-0.1348,-0.9580,-0.1689,28.11,-2.20,63.11
673,2255847628,-0.1348,-0.9688,-0.1055,25.98,-1.52,63.66
674,2255852629,-0.1479,-0.9902,0.0015,24.63,-1.89,63.90
675,2255857627,-0.1567,-1.0254,0.0122,23.66,-2.50,63.90
676,2255862627,-0.1699,-1.0513,-0.0327,22.80,-2.99,63.66
677,2255867629,-0.1860,-1.0601,-0.0195,22.01,-3.23,63.23
678,2255872627,-0.1982,-1.0620,0.0015,20.85,-3.84,62.44
679,2255878484,-0.2119,-1.0532,-0.0171,19.45,-4.21,61.59
680,2255882629,-0.2197,-1.0532,-0.0488,18.66,-4.45,61.04
681,2255887628,-0.2217,-1.0405,-0.0376,17.62,-4.76,60.49
682,2255892627,-0.2178,-1.0308,-0.0361,16.95,-4.82,60.12
683,2255897629,-0.2241,-1.0259,-0.0347,16.46,-4.82,59.88
684,2255902628,-0.2231,-1.0176,-0.0352,16.22,-4.94,59.63
685,2255907629,-0.2202,-1.0078,-0.0342,16.46,-5.18,59.70
686,2255912628,-0.2212,-0.9966,-0.0352,17.26,-5.37,59.76
687,2255917629,-0.2212,-0.9951,-0.0239,18.23,-5.55,60.00
688,2255922629,-0.2139,-0.9902,-0.0249,19.63,-5.61,60.37
689,2255927629,-0.2061,-0.9883,-0.0337,21.22,-5.55,60.79
690,2255932628,-0.2124,-0.9897,-0.0308,22.80,-5.37,61.16
691,2255937629,-0.2085,-0.9941,-0.0376,23.96,-5.24,61.40
692,2255942629,-0.2212,-1.0078,-0.0449,24.76,-4.82,61.59
693,2255947629,-0.2217,-1.0107,-0.0591,25.06,-4.57,61.59
694,2255952628,-0.2246,-1.0225,-0.0659,24.76,-3.96,61.34
695,2255957629,-0.2324,-1.0303,-0.0732,24.33,-3.41,61.04
696,2255962629,-0.2373,-1.0381,-0.0747,23.96,-2.87,60.61
697,2255967629,-0.2495,-1.0474,-0.0801,23.54,-2.20,60.00
698,2255972628,-0.2573,-1.0518,-0.0869,22.74,-1.65,59.15
699,2255977629,-0.2808,-1.0547,-0.1055,21.65,-1.16,58.41
700,2255982629,-0.2798,-1.0479,-0.1177,19.70,-0.49,57.50
701,2255987627,-0.2925,-1.0420,-0.1172,17.26,0.12,56.65
702,2255992629,-0.3018,-1.0396,-0.0898,14.82,0.67,55.79
703,2255997628,-0.3086,-1.0273,-0.0898,12.56,1.28,55.12
704,2256002629,-0.3013,-1.0229,-0.0850,10.85,1.83,54.51
705,2256007628,-0.2988,-1.0117,-0.0654,9.94,2.13,54.27
706,2256012627,-0.3018,-1.0010,-0.0493,10.00,2.62,54.21
707,2256017628,-0.2998,-0.9839,-0.0347,10.98,3.05,54.45
708,2256022629,-0.2915,-0.9736,-0.0298,13.05,3.60,54.70
709,2256027627,-0.2832,-0.9644,-0.0190,15.98,4.09,55.43
710,2256032628,-0.2803,-0.9565,-0.0220,19.45,4.70,56.16
711,2256037629,-0.2793,-0.9585,-0.0200,23.35,5.30,57.20
712,2256042627,-0.2749,-0.9600,-0.0161,27.13,5.91,58.11
713,2256047629,-0.2720,-0.9658,-0.0239,30.30,6.40,58.96
714,2256052629,-0.2744,-0.9766,-0.0356,32.62,7.01,59.70
715,2256057629,-0.2749,-0.9907,-0.0410,33.84,7.50,60.12
716,2256062628,-0.2817,-1.0063,-0.0562,33.41,8.05,60.24
717,2256067627,-0.2871,-1.0244,-0.0498,31.52,8.41,60.06
718,2256072629,-0.2866,-1.0337,-0.0503,28.17,8.54,59.57
719,2256077629,-0.2920,-1.0449,-0.0566,23.66,9.02,58.66
720,2256082629,-0.2959,-1.0571,-0.0620,18.72,9.51,57.62
721,2256087629,-0.2983,-1.0576,-0.0483,13.72,9.94,56.40
722,2256092627,-0.3086,-1.0571,-0.0420,9.57,10.24,55.30
723,2256097730,-0.3213,-1.0483,-0.0425,6.34,10.37,54.33
724,2256102629,-0.3271,-1.0386,-0.0518,4.63,10.55,53.35
725,2256107628,-0.3345,-1.0264,-0.0308,4.63,11.34,52.56
726,2256112720,-0.3457,-1.0137,-0.0273,6.16,12.20,52.01
727,2256117628,-0.3481,-0.9932,-0.0146,8.66,12.38,51.83
728,2256122631,-0.3540,-0.9766,-0.0020,12.07,12.68,51.71
729,2256127628,-0.3633,-0.9727,0.0000,15.67,13.05,51.89
730,2256132627,-0.3833,-0.9736,0.0000,19.27,14.33,52.01
731,2256137630,-0.3843,-0.9683,0.0034,22.26,15.12,52.32
732,2256142627,-0.3813,-0.9663,0.0078,25.12,16.10,52.62
733,2256147680,-0.3931,-0.9766,-0.0020,27.07,16.59,52.62
734,2256152631,-0.4033,-0.9814,-0.0337,28.78,17.87,52.87
735,2256157938,-0.4077,-0.9946,-0.0356,29.09,18.29,52.99
736,2256162629,-0.4121,-1.0000,-0.0366,28.90,19.51,53.11
737,2256167630,-0.4111,-0.9951,-0.0757,27.50,20.37,53.11
738,2256172629,-0.4170,-0.9839,-0.0522,25.24,20.85,53.05
739,2256177627,-0.4131,-0.9688,-0.0879,22.74,20.85,52.87
740,2256182632,-0.4351,-0.9810,-0.0586,20.37,22.93,52.62
741,2256187628,-0.4424,-0.9648,-0.0786,18.41,23.17,52.56
742,2256192627,-0.4067,-0.9419,-0.0811,16.40,23.29,52.56
743,2256197630,-0.4214,-0.9434,-0.0640,14.70,24.76,52.99
744,2256202629,-0.4482,-0.9360,-0.0488,13.23,25.37,53.60
745,2256207629,-0.4507,-0.9243,-0.0542,12.32,26.04,54.21
746,2256212874,-0.4722,-0.9307,-0.0283,12.32,26.89,54.88
747,2256217629,-0.4873,-0.9258,-0.0254,13.05,27.93,55.55
748,2256223161,-0.4893,-0.9316,-0.0293,14.15,29.39,56.04
749,2256228065,-0.4961,-0.9336,-0.0264,15.85,30.73,56.65
750,2256232629,-0.5034,-0.9375,-0.0229,18.41,32.07,57.13
751,2256237628,-0.5020,-0.9346,-0.0381,21.89,33.23,57.68
752,2256242628,-0.5039,-0.9375,-0.0459,25.73,34.39,58.29
753,2256247630,-0.5000,-0.9346,-0.0469,29.51,35.43,59.02
754,2256252627,-0.4888,-0.9312,-0.0542,32.62,36.52,59.70
755,2256257629,-0.4722,-0.9272,-0.0703,35.18,37.50,60.37
756,2256262628,-0.4966,-0.9326,-0.0796,36.71,38.35,61.10
757,2256267629,-0.5029,-0.9272,-0.0991,37.01,39.21,61.83
758,2256272629,-0.4927,-0.9204,-0.1050,35.98,40.12,62.38
759,2256277629,-0.5156,-0.9116,-0.0986,33.96,40.85,62.93
760,2256282629,-0.5488,-0.9077,-0.0889,30.24,41.65,63.35
761,2256287628,-0.5532,-0.8862,-0.0435,25.37,42.01,63.96
762,2256292629,-0.5479,-0.8789,-0.0571,19.63,42.68,64.39
763,2256297627,-0.5527,-0.8823,-0.0508,14.09,43.66,64.70
764,2256302629,-0.5708,-0.8892,0.0034,8.48,44.39,65.12
765,2256307629,-0.5898,-0.8950,0.0142,3.96,44.70,65.43
766,2256312629,-0.5938,-0.8994,-0.0083,0.98,45.00,65.79
767,2256317628,-0.6025,-0.9058,0.0059,0.00,45.37,66.28
768,2256322629,-0.6108,-0.9150,0.0283,0.91,45.43,66.52
769,2256327808,-0.6113,-0.9131,0.0195,3.66,45.24,66.83
770,2256332629,-0.6104,-0.9214,0.0093,7.87,45.43,67.13
771,2256337628,-0.6055,-0.9180,0.0195,13.54,45.43,67.44
772,2256342629,-0.6084,-0.9175,0.0171,19.45,45.30,67.56
773,2256347629,-0.6177,-0.9243,-0.0015,25.24,45.49,67.68
774,2256352629,-0.6250,-0.9243,-0.0249,30.24,45.73,67.87
775,2256357629,-0.6104,-0.9214,-0.0229,34.21,45.98,67.99
776,2256362628,-0.6313,-0.9263,-0.0474,36.46,46.65,67.93
777,2256367630,-0.6626,-0.9189,-0.0522,36.52,47.50,67.74
778,2256372629,-0.6523,-0.9106,-0.0498,34.63,47.87,67.56
779,2256377942,-0.6455,-0.9062,-0.0640,30.73,48.66,67.38
780,2256382629,-0.6558,-0.9033,-0.0674,25.18,49.39,67.13
781,2256387629,-0.6660,-0.9019,-0.0708,18.41,50.12,66.83
782,2256392629,-0.6587,-0.8965,-0.0791,11.04,50.85,66.59
783,2256397629,-0.6572,-0.9009,-0.0757,4.15,51.28,66.46
784,2256402627,-0.6528,-0.8979,-0.0835,-1.71,51.77,66.40
785,2256407628,-0.6460,-0.8979,-0.0889,-6.16,52.20,66.52
786,2256412629,-0.6426,-0.9038,-0.0903,-8.66,52.68,66.83
787,2256417629,-0.6514,-0.9009,-0.0972,-9.45,52.99,67.07
788,2256422629,-0.6592,-0.9038,-0.0972,-8.66,53.41,67.38
789,2256427628,-0.6680,-0.9028,-0.0991,-6.22,53.90,67.56
790,2256432629,-0.6797,-0.9111,-0.1025,-2.74,54.39,67.87
791,2256437629,-0.6899,-0.9121,-0.1152,1.40,55.30,68.11
792,2256442629,-0.6978,-0.9126,-0.1162,5.67,56.28,68.48
793,2256447628,-0.6904,-0.9082,-0.1138,9.45,57.62,68.78
794,2256452629,-0.6885,-0.9106,-0.1099,12.56,59.15,69.09
795,2256457629,-0.6963,-0.9053,-0.1191,14.94,60.91,69.27
796,2256462629,-0.7056,-0.9043,-0.1274,16.77,62.44,69.51
797,2256467628,-0.7129,-0.9019,-0.1353,17.68,64.09,69.63
798,2256472630,-0.7183,-0.8960,-0.1455,17.80,65.67,69.70
799,2256477629,-0.7236,-0.8901,-0.1646,16.89,66.89,69.82
800,2256482629,-0.7256,-0.8804,-0.1743,15.18,68.05,69.82
801,2256487628,-0.7158,-0.8721,-0.1919,12.80,68.78,69.76
802,2256492629,-0.7139,-0.8662,-0.2046,9.94,69.33,69.76
803,2256497629,-0.7153,-0.8608,-0.2168,6.65,69.51,69.82
804,2256502629,-0.7212,-0.8589,-0.2295,2.99,70.06,69.76
805,2256507627,-0.7202,-0.8599,-0.2446,-0.43,70.37,69.82
806,2256512629,-0.7222,-0.8711,-0.2476,-3.66,71.10,69.88
807,2256517627,-0.7227,-0.8706,-0.2559,-6.59,72.01,69.94
808,2256522629,-0.7227,-0.8657,-0.2583,-9.15,72.87,70.18
809,2256527628,-0.7363,-0.8657,-0.2603,-11.28,74.21,70.30
810,2256532627,-0.7480,-0.8745,-0.2563,-12.93,75.61,70.30
811,2256537627,-0.7310,-0.8721,-0.2466,-13.96,77.26,70.49
812,2256542627,-0.7227,-0.8682,-0.2373,-14.45,79.51,70.49
813,2256547627,-0.7339,-0.8740,-0.2339,-14.09,81.65,70.49
814,2256552627,-0.7441,-0.8740,-0.2310,-12.80,83.60,70.18
815,2256557627,-0.7495,-0.8838,-0.2397,-10.00,85.91,69.94
816,2256562629,-0.7617,-0.8892,-0.2383,-6.16,88.35,69.63
817,2256567628,-0.7720,-0.8896,-0.2476,-1.71,90.55,69.09
818,2256572629,-0.7788,-0.8892,-0.2603,2.99,92.62,68.48
819,2256577629,-0.7866,-0.8926,-0.2710,7.44,94.76,67.80
820,2256582702,-0.7905,-0.8940,-0.2827,11.16,96.77,66.95
821,2256587630,-0.7949,-0.8901,-0.3042,13.90,98.78,66.16
822,2256592629,-0.7925,-0.8911,-0.3145,15.24,100.91,65.24
823,2256597629,-0.7915,-0.8813,-0.3369,15.00,102.74,64.27
824,2256602628,-0.7905,-0.8770,-0.3457,12.62,104.82,63.35
825,2256607629,-0.7920,-0.8735,-0.3521,8.66,106.77,62.32
826,2256612627,-0.7705,-0.8716,-0.3481,3.35,108.78,61.46
827,2256617629,-0.7393,-0.8721,-0.3398,-2.74,110.73,60.73
828,2256622628,-0.7129,-0.8716,-0.3379,-8.84,112.62,60.30
829,2256627629,-0.7163,-0.8735,-0.3486,-14.33,114.02,59.94
830,2256632628,-0.7222,-0.8809,-0.3521,-18.72,115.18,59.63
831,2256637693,-0.7192,-0.8784,-0.3540,-21.83,115.98,59.33
832,2256642628,-0.7192,-0.8730,-0.3521,-24.09,116.65,58.90
833,2256647629,-0.7412,-0.8774,-0.3545,-25.37,116.95,58.35
834,2256652627,-0.7676,-0.8745,-0.3467,-26.22,117.38,57.50
835,2256657627,-0.7798,-0.8755,-0.3491,-26.65,117.50,56.71
836,2256662631,-0.7832,-0.8716,-0.3496,-26.52,117.93,55.55
837,2256667629,-0.7920,-0.8672,-0.3452,-25.85,118.35,54.57
838,2256672629,-0.8105,-0.8716,-0.3555,-24.45,118.90,53.29
839,2256677627,-0.7949,-0.8701,-0.3643,-21.95,119.70,52.20
840,2256682629,-0.7783,-0.8618,-0.3706,-18.41,120.67,51.04
841,2256687629,-0.7666,-0.8506,-0.3735,-14.63,121.83,49.94
842,2256692628,-0.7456,-0.8452,-0.3696,-10.98,122.87,48.78
843,2256697629,-0.7236,-0.8389,-0.3755,-8.29,124.09,47.68
844,2256702628,-0.7192,-0.8315,-0.3853,-7.26,125.30,46.52
845,2256707629,-0.7358,-0.8203,-0.4058,-7.62,126.65,45.37
846,2256712629,-0.7368,-0.8193,-0.4199,-9.57,127.68,43.96
847,2256717629,-0.7339,-0.8086,-0.4277,-13.17,128.54,42.62
848,2256722629,-0.7310,-0.7954,-0.4316,-18.23,129.02,41.34
849,2256727629,-0.7319,-0.7905,-0.4404,-24.33,129.76,39.94
850,2256732629,-0.7295,-0.7812,-0.4556,-30.43,130.24,38.90
851,2256737628,-0.7241,-0.7769,-0.4590,-35.91,130.49,38.05
852,2256742629,-0.7280,-0.7764,-0.4766,-40.00,130.67,37.20
853,2256747629,-0.7256,-0.7837,-0.4766,-42.62,130.91,36.83
854,2256752629,-0.7036,-0.7852,-0.4858,-43.29,131.10,36.65
855,2256757627,-0.6895,-0.7808,-0.4888,-42.38,131.40,36.59
856,2256762629,-0.6694,-0.7808,-0.4868,-40.43,131.59,36.77
857,2256767627,-0.6519,-0.7827,-0.4712,-38.29,132.44,36.77
858,2256772627,-0.6328,-0.7847,-0.4653,-36.16,133.35,36.65
859,2256777629,-0.6265,-0.7812,-0.4609,-34.27,134.39,36.40
860,2256782629,-0.6357,-0.7803,-0.4746,-32.80,135.43,35.85
861,2256787627,-0.6626,-0.7808,-0.4863,-31.77,136.52,35.00
862,2256792627,-0.6855,-0.7822,-0.5088,-31.59,137.20,33.66
863,2256797627,-0.7021,-0.7817,-0.5381,-32.13,137.93,32.07
864,2256802655,-0.7148,-0.7822,-0.5576,-33.11,138.60,30.43
865,2256807629,-0.7197,-0.7734,-0.5752,-34.94,138.72,28.72
866,2256812629,-0.7051,-0.7681,-0.5776,-37.56,139.27,27.07
867,2256817811,-0.6748,-0.7632,-0.5850,-40.55,139.82,25.67
868,2256822629,-0.6636,-0.7563,-0.5879,-43.72,140.55,24.57
869,2256827628,-0.6519,-0.7544,-0.5981,-47.13,141.34,23.66
870,2256832629,-0.6289,-0.7480,-0.5947,-50.24,142.32,23.05
871,2256837629,-0.6079,-0.7446,-0.5991,-52.87,143.35,22.74
872,2256842628,-0.5908,-0.7334,-0.6060,-54.51,144.51,22.50
873,2256847627,-0.5874,-0.7271,-0.6113,-54.51,145.55,22.20
874,2256852627,-0.5786,-0.7178,-0.6104,-52.50,146.77,21.89
875,2256857629,-0.5615,-0.7163,-0.6167,-50.24,147.68,21.71
876,2256862627,-0.5391,-0.7090,-0.6182,-47.01,148.66,21.52
877,2256867628,-0.5371,-0.6963,-0.6274,-43.29,149.76,21.04
878,2256872629,-0.5620,-0.6987,-0.6475,-39.70,150.49,20.30
879,2256877627,-0.5664,-0.6948,-0.6523,-36.89,151.04,19.45
880,2256882629,-0.5747,-0.6855,-0.6543,-35.18,151.52,18.60
881,2256887627,-0.5762,-0.6797,-0.6816,-34.57,151.71,17.50
882,2256892627,-0.5830,-0.6753,-0.7114,-35.37,151.71,16.46
883,2256897629,-0.6050,-0.6680,-0.7207,-37.50,151.46,15.49
884,2256902628,-0.6113,-0.6660,-0.7319,-41.59,151.34,14.63
885,2256907627,-0.6064,-0.6577,-0.7305,-47.13,151.34,13.72
886,2256912627,-0.6040,-0.6543,-0.7378,-53.78,151.46,12.99
887,2256917627,-0.5879,-0.6460,-0.7451,-60.91,151.71,12.26
888,2256922629,-0.5718,-0.6494,-0.7368,-67.80,151.89,11.71
889,2256927643,-0.5527,-0.6533,-0.7363,-73.54,152.50,11.59
890,2256932628,-0.5181,-0.6475,-0.7339,-77.01,152.80,11.46
891,2256937629,-0.4985,-0.6406,-0.7314,-77.80,153.17,11.65
892,2256942628,-0.4888,-0.6348,-0.7373,-75.79,153.17,11.83
893,2256947629,-0.4639,-0.6182,-0.7471,-71.59,153.11,11.95
894,2256952629,-0.4556,-0.6050,-0.7695,-65.98,152.93,12.01
895,2256957629,-0.4683,-0.5952,-0.7817,-60.12,152.62,11.59
896,2256962628,-0.4736,-0.5894,-0.7969,-55.30,151.83,11.10
897,2256967629,-0.4609,-0.5894,-0.8101,-52.50,151.46,10.67
898,2256972629,-0.4434,-0.5815,-0.8276,-52.20,150.98,10.18
899,2256977911,-0.4507,-0.5781,-0.8311,-54.21,150.67,9.82
900,2256982629,-0.4478,-0.5693,-0.8369,-58.41,150.12,9.33
901,2256987628,-0.4287,-0.5557,-0.8438,-64.45,149.94,9.02
902,2256992631,-0.4326,-0.5459,-0.8599,-71.22,149.57,8.66
903,2256997627,-0.4434,-0.5391,-0.8726,-77.68,149.45,8.29
904,2257002629,-0.4346,-0.5361,-0.8921,-83.17,149.33,8.23
905,2257007628,-0.4106,-0.5244,-0.8911,-87.74,149.15,8.35
906,2257012630,-0.3857,-0.5200,-0.8838,-91.34,149.21,8.78
907,2257017632,-0.3604,-0.5083,-0.8853,-94.88,149.63,9.45
908,2257022629,-0.3691,-0.5166,-0.8887,-96.59,150.24,10.18
909,2257027628,-0.3687,-0.5205,-0.8687,-98.11,151.16,11.16
910,2257032629,-0.3213,-0.5112,-0.8774,-98.29,152.50,12.13
911,2257037627,-0.3096,-0.5054,-0.8672,-97.01,153.72,13.17
912,2257042628,-0.2925,-0.5098,-0.8701,-94.33,155.49,14.21
913,2257047629,-0.2646,-0.5034,-0.8599,-90.98,157.38,15.18
914,2257052627,-0.2515,-0.5010,-0.8486,-87.50,159.09,15.85
915,2257057628,-0.2505,-0.5029,-0.8423,-83.72,160.67,16.40
916,2257062629,-0.2690,-0.4980,-0.8560,-80.06,162.01,16.65
917,2257067627,-0.2817,-0.5000,-0.8618,-76.77,163.05,16.46
918,2257072627,-0.2754,-0.4839,-0.8701,-74.27,163.66,16.16
919,2257077629,-0.2822,-0.4736,-0.8701,-72.99,163.96,15.37
920,2257082628,-0.2773,-0.4648,-0.8662,-73.66,164.33,14.51
921,2257087629,-0.2573,-0.4502,-0.8599,-75.61,164.57,13.66
922,2257092627,-0.2451,-0.4526,-0.8579,-79.02,164.76,12.80
923,2257097631,-0.2275,-0.4395,-0.8584,-83.41,164.88,12.26
924,2257102628,-0.2280,-0.4399,-0.8608,-88.60,165.24,11.71
925,2257107629,-0.2373,-0.4487,-0.8521,-94.15,165.49,11.40
926,2257112627,-0.2231,-0.4404,-0.8423,-99.45,166.10,11.40
927,2257117629,-0.1743,-0.4331,-0.8262,-103.72,166.77,11.59
928,2257122628,-0.1499,-0.4258,-0.8120,-106.71,167.68,12.01
929,2257127631,-0.1328,-0.4175,-0.8052,-107.99,168.41,12.38
930,2257132627,-0.1138,-0.4126,-0.7812,-108.54,169.33,13.05
931,2257137629,-0.0991,-0.3994,-0.7617,-108.29,170.24,13.48
932,2257142628,-0.0933,-0.3950,-0.7539,-106.77,171.10,13.96
933,2257147629,-0.1055,-0.3862,-0.7656,-103.96,171.65,14.27
934,2257152627,-0.1245,-0.3789,-0.7510,-99.88,172.07,14.15
935,2257157629,-0.1099,-0.3657,-0.7524,-97.44,172.13,14.09
936,2257162629,-0.0977,-0.3521,-0.7480,-95.24,172.38,13.66
937,2257167628,-0.0942,-0.3438,-0.7495,-94.45,172.44,13.29
938,2257172629,-0.0957,-0.3154,-0.7432,-94.94,172.50,12.62
939,2257177627,-0.1006,-0.3223,-0.7305,-96.95,172.50,12.01
940,2257182629,-0.0781,-0.3066,-0.7207,-100.18,172.62,11.89
941,2257187628,-0.0542,-0.2949,-0.7163,-103.54,172.87,11.83
942,2257192629,-0.0381,-0.2959,-0.7129,-106.46,173.05,12.20
943,2257197631,-0.0117,-0.2827,-0.6992,-108.48,173.41,12.80
944,2257202627,0.0132,-0.2720,-0.6875,-109.82,174.09,13.66
945,2257207629,0.0264,-0.2554,-0.6826,-110.12,174.70,14.70
946,2257212628,0.0483,-0.2524,-0.6782,-109.02,175.43,15.85
947,2257217627,0.0615,-0.2471,-0.6860,-107.13,176.34,17.01
948,2257222627,0.0483,-0.2432,-0.6816,-105.18,177.20,17.99
949,2257227627,0.0366,-0.2368,-0.6748,-104.27,177.93,18.48
950,2257232629,0.0332,-0.2446,-0.6655,-104.88,178.96,18.72
951,2257237627,0.0479,-0.2344,-0.6460,-107.07,180.12,19.02
952,2257242629,0.0698,-0.2354,-0.6382,-110.06,181.52,19.09
953,2257247629,0.0757,-0.2339,-0.6191,-113.48,182.68,19.45
954,2257252629,0.0874,-0.2197,-0.5981,-115.91,183.96,19.82
955,2257257629,0.1108,-0.2183,-0.5884,-116.28,185.43,20.43
956,2257262628,0.1445,-0.2153,-0.5723,-114.15,186.65,21.22
957,2257267629,0.1768,-0.1968,-0.5645,-109.57,187.68,22.20
958,2257272629,0.1943,-0.1836,-0.5586,-103.54,188.72,23.17
959,2257277629,0.1973,-0.1699,-0.5415,-97.26,189.76,24.02
960,2257282628,0.2031,-0.1543,-0.5234,-92.07,190.73,24.70
961,2257287629,0.2148,-0.1465,-0.5176,-88.23,191.59,25.12
962,2257292629,0.2256,-0.1479,-0.5220,-85.98,192.32,25.43
963,2257297627,0.2148,-0.1367,-0.5225,-85.55,192.99,25.61
964,2257302627,0.2070,-0.1201,-0.5259,-87.07,193.23,25.55
965,2257307629,0.2158,-0.1172,-0.5146,-90.55,193.48,25.24
966,2257312627,0.2476,-0.1235,-0.4951,-95.98,194.15,25.18
967,2257317629,0.2700,-0.1245,-0.4805,-102.68,194.51,25.30
968,2257322629,0.2729,-0.1313,-0.4624,-109.57,195.06,25.55
969,2257327629,0.2622,-0.1436,-0.4287,-115.98,195.49,26.10
970,2257332630,0.3164,-0.1260,-0.3770,-120.43,196.46,26.83
971,2257337628,0.3804,-0.1187,-0.3481,-121.34,197.68,27.62
972,2257342629,0.3877,-0.1235,-0.3374,-118.17,198.90,28.60
973,2257347628,0.3696,-0.1274,-0.3320,-111.34,199.88,29.57
974,2257352629,0.3721,-0.1299,-0.3071,-102.01,200.85,30.37
975,2257357627,0.4014,-0.1187,-0.2856,-91.46,201.95,30.98
976,2257362629,0.4224,-0.1250,-0.2910,-80.55,202.99,31.28
977,2257367629,0.4224,-0.1260,-0.2993,-70.73,203.78,31.46
978,2257372629,0.4204,-0.1167,-0.2832,-63.84,204.51,31.34
979,2257377629,0.4326,-0.1079,-0.2588,-60.85,205.30,30.85
980,2257382628,0.4551,-0.1123,-0.2563,-61.83,206.34,30.12
981,2257387629,0.4619,-0.1177,-0.2598,-66.77,207.32,29.51
982,2257392629,0.4414,-0.1191,-0.2451,-74.39,208.11,28.60
983,2257397629,0.4287,-0.1191,-0.2241,-84.15,208.78,27.62
984,2257402630,0.4399,-0.1162,-0.2002,-94.15,209.57,26.46
985,2257407656,0.4463,-0.1196,-0.1904,-103.17,210.12,25.24
986,2257412629,0.4385,-0.1270,-0.1733,-110.24,210.43,24.09
987,2257417629,0.4136,-0.1436,-0.1406,-114.76,210.55,23.23
988,2257422629,0.4614,-0.1333,-0.1045,-115.98,210.73,22.87
989,2257427738,0.5273,-0.1177,-0.0776,-113.29,211.04,22.50
990,2257432629,0.5508,-0.1138,-0.0669,-107.07,211.46,22.56
991,2257437628,0.5664,-0.0986,-0.0459,-98.17,211.65,22.74
992,2257442629,0.5894,-0.0825,-0.0122,-88.17,212.01,22.99
993,2257447627,0.6182,-0.0747,0.0137,-78.35,212.62,23.23
994,2257452629,0.6528,-0.0615,0.0283,-69.94,213.72,23.90
995,2257457628,0.6743,-0.0547,0.0361,-63.23,214.94,24.57
996,2257462629,0.6758,-0.0503,0.0312,-58.84,216.28,25.49
997,2257467627,0.6650,-0.0332,0.0474,-57.68,217.26,26.10
998,2257472629,0.6475,-0.0210,0.0737,-60.12,218.35,26.40
999,2257477628,0.6567,-0.0376,0.0928,-65.37,219.45,26.46
1000,2257482629,0.6489,-0.0723,0.0820,-72.80,220.00,26.71
1001,2257487627,0.5967,-0.0864,0.1108,-81.89,220.67,26.71
1002,2257492629,0.5659,-0.0845,0.1514,-91.71,220.79,26.59
1003,2257497628,0.5752,-0.0820,0.1909,-100.43,221.10,26.40
1004,2257502629,0.6025,-0.1094,0.1938,-106.34,221.10,26.28
1005,2257507627,0.6172,-0.1431,0.2046,-108.90,220.98,26.52
1006,2257512629,0.6201,-0.1465,0.2378,-108.17,220.55,27.07
1007,2257517628,0.6191,-0.1509,0.2588,-104.57,220.24,27.56
1008,2257522629,0.6436,-0.1406,0.2959,-98.66,220.30,28.05
1009,2257527627,0.6782,-0.1211,0.3218,-91.04,220.61,28.48
1010,2257532629,0.6919,-0.1240,0.3325,-82.38,221.28,28.90
1011,2257537628,0.6978,-0.1299,0.3506,-74.45,222.07,29.45
1012,2257542629,0.6953,-0.1167,0.3848,-67.99,223.41,30.00
1013,2257547629,0.6978,-0.1206,0.4219,-63.35,225.24,30.49
1014,2257552628,0.7192,-0.1450,0.4238,-60.37,227.07,30.98
1015,2257557629,0.7026,-0.1440,0.4175,-58.66,228.72,31.28
1016,2257562628,0.6445,-0.1479,0.4375,-58.29,229.82,30.85
1017,2257567629,0.6089,-0.1631,0.4707,-59.63,230.73,30.18
1018,2257572628,0.6196,-0.1821,0.4902,-61.83,231.59,29.09
1019,2257577629,0.6177,-0.2021,0.4873,-63.90,232.07,27.74
1020,2257582629,0.5952,-0.2319,0.4780,-65.37,232.07,26.28
1021,2257587629,0.5933,-0.2598,0.4863,-66.40,232.01,24.63
1022,2257592628,0.5923,-0.2744,0.4956,-67.38,231.59,22.80
1023,2257597629,0.5923,-0.2886,0.5059,-68.41,231.46,20.79
1024,2257602629,0.6011,-0.2871,0.5161,-69.21,231.52,18.78
1025,2257607629,0.6113,-0.2812,0.5278,-69.63,231.77,16.77
1026,2257612628,0.6514,-0.2959,0.5342,-69.21,232.62,14.94
1027,2257617629,0.6909,-0.3159,0.5483,-68.72,233.78,13.48
1028,2257622629,0.7046,-0.3403,0.5537,-68.17,235.24,12.38
1029,2257627627,0.7173,-0.3750,0.5664,-68.35,236.71,11.40
1030,2257632631,0.6997,-0.3857,0.5962,-69.15,237.99,10.37
1031,2257637922,0.6562,-0.3892,0.6509,-71.28,239.33,8.66
1032,2257642630,0.6113,-0.3955,0.7148,-74.57,240.73,6.46
1033,2257647629,0.5806,-0.4316,0.7573,-78.29,242.32,3.84
1034,2257652629,0.5850,-0.4512,0.7891,-80.91,243.78,1.10
1035,2257657629,0.5640,-0.4478,0.8184,-81.59,245.12,-1.83
1036,2257662628,0.5244,-0.4609,0.8350,-80.00,246.16,-5.12
1037,2257667629,0.5225,-0.4629,0.8486,-76.40,247.01,-8.48
1038,2257672629,0.5200,-0.4580,0.8564,-71.16,247.93,-11.71
1039,2257677629,0.5259,-0.4556,0.8579,-64.94,248.48,-14.51
1040,2257682628,0.5688,-0.4424,0.8574,-57.80,249.21,-16.95
1041,2257687629,0.6128,-0.4395,0.8535,-50.37,250.12,-18.78
1042,2257692629,0.6426,-0.4277,0.8740,-43.48,251.16,-20.06
1043,2257697629,0.6670,-0.4136,0.8818,-37.26,252.32,-20.91
1044,2257702628,0.7056,-0.4233,0.8853,-31.22,253.23,-21.71
1045,2257707627,0.7051,-0.4175,0.9048,-26.22,253.60,-22.26
1046,2257712629,0.6489,-0.3862,0.9448,-22.80,253.54,-23.17
1047,2257717628,0.6133,-0.3799,0.9844,-21.34,252.99,-24.76
1048,2257722629,0.6025,-0.3833,1.0254,-21.95,252.26,-26.65
1049,2257727710,0.5845,-0.3931,1.0591,-24.51,251.22,-29.02
1050,2257732638,0.5547,-0.4019,1.0898,-28.54,249.51,-31.52
1051,2257737628,0.5308,-0.3872,1.1108,-32.87,247.68,-34.09
1052,2257742629,0.5142,-0.3711,1.1265,-37.13,245.55,-36.89
1053,2257747629,0.4805,-0.3809,1.1572,-41.40,243.29,-39.63
1054,2257752629,0.4688,-0.3735,1.1660,-45.18,241.10,-42.13
1055,2257757628,0.4688,-0.3530,1.1680,-47.56,239.02,-44.21
1056,2257762629,0.4658,-0.3359,1.1611,-48.60,236.71,-45.91
1057,2257767628,0.4688,-0.3154,1.1577,-48.17,234.88,-46.95
1058,2257772630,0.4717,-0.3037,1.1304,-46.71,233.17,-47.44
1059,2257777628,0.4565,-0.3179,1.1338,-44.82,231.71,-46.89
1060,2257782627,0.4746,-0.3018,1.1582,-42.56,230.67,-45.55
1061,2257787629,0.4355,-0.2310,1.1763,-39.94,229.57,-44.33
1062,2257792628,0.3105,-0.1929,1.1807,-36.65,228.66,-43.78
1063,2257797757,0.2070,-0.1685,1.1934,-32.87,227.26,-43.54
1064,2257802629,0.1323,-0.1382,1.2046,-29.21,225.61,-43.72
1065,2257807628,0.0654,-0.1128,1.2085,-26.46,223.66,-43.90
1066,2257812631,0.0239,-0.0889,1.2280,-24.94,222.01,-44.15
1067,2257817627,0.0127,-0.0713,1.2144,-25.18,220.12,-44.33
1068,2257822629,0.0112,-0.0625,1.1826,-27.68,217.93,-44.39
1069,2257827628,0.0410,-0.0532,1.1772,-32.68,215.85,-43.84
1070,2257832629,0.0879,-0.0420,1.1685,-39.88,214.09,-42.74
1071,2257837627,0.1279,-0.0225,1.1694,-48.60,213.11,-41.04
1072,2257842629,0.1499,-0.0093,1.1299,-58.11,212.44,-38.66
1073,2257847628,0.1450,-0.0122,1.1040,-67.87,212.20,-35.61
1074,2257852629,0.1162,-0.0049,1.0854,-77.80,212.44,-31.95
1075,2257857627,0.0713,0.0283,1.0933,-87.01,213.29,-27.74
1076,2257862630,0.0098,0.0552,1.0967,-94.57,214.51,-23.11
1077,2257867628,-0.0176,0.0703,1.1021,-99.45,216.28,-18.17
1078,2257872629,-0.0337,0.0894,1.0996,-101.34,218.41,-12.74
1079,2257877627,-0.0762,0.1084,1.0933,-99.94,220.55,-7.13
1080,2257882629,-0.1602,0.1372,1.0947,-95.49,222.32,-1.52
1081,2257887627,-0.2324,0.1489,1.1289,-88.84,224.27,4.15
1082,2257892629,-0.2583,0.1606,1.1377,-80.85,226.40,9.88
1083,2257897628,-0.2920,0.1724,1.1304,-72.62,228.54,15.30
1084,2257902629,-0.3315,0.1704,1.1030,-65.61,230.37,20.79
1085,2257907739,-0.3486,0.1724,1.0972,-61.16,232.01,26.16
1086,2257912629,-0.3594,0.1733,1.0884,-60.37,233.54,31.52
1087,2257917628,-0.3647,0.1514,1.0654,-63.78,235.00,37.01
1088,2257922631,-0.3848,0.1426,1.0718,-71.34,236.59,42.74
1089,2257927627,-0.4106,0.1362,1.0698,-81.77,238.35,48.72
1090,2257932629,-0.4517,0.1167,1.0513,-93.72,240.18,54.76
1091,2257938141,-0.5254,0.1133,1.0220,-109.02,242.56,62.44
1092,2257942631,-0.5747,0.1113,1.0269,-118.78,244.09,67.74
1093,2257947628,-0.6191,0.1167,1.0337,-130.18,245.79,74.63
1094,2257952629,-0.6626,0.1187,1.0127,-139.51,247.87,81.77
1095,2257957627,-0.7134,0.1191,1.0093,-146.22,249.94,89.39
1096,2257962630,-0.7803,0.1309,1.0146,-149.51,252.13,97.13
1097,2257967628,-0.8599,0.1421,1.0142,-149.45,254.33,105.24
1098,2257972629,-0.9370,0.1411,1.0078,-147.56,256.16,113.48
1099,2257977627,-0.9878,0.1377,0.9990,-143.17,257.87,121.83
1100,2257982629,-1.0269,0.1250,1.0254,-138.84,259.51,130.30
1101,2257987629,-1.0688,0.1016,0.9956,-133.72,260.30,138.78
1102,2257992628,-1.1157,0.0830,0.9941,-129.02,260.85,146.71
1103,2257997629,-1.1519,0.0659,1.0142,-126.10,261.04,154.15
1104,2258002627,-1.1680,0.0498,0.9990,-125.37,260.55,161.46
1105,2258007627,-1.1782,0.0283,0.9521,-125.49,260.12,168.66
1106,2258012629,-1.1948,0.0190,0.9209,-127.07,259.39,176.28
1107,2258017629,-1.2280,0.0166,0.9341,-130.37,259.21,184.45
1108,2258022627,-1.2876,0.0342,0.9907,-136.52,259.33,192.74
1109,2258027629,-1.3950,0.1064,1.2090,-157.20,257.20,201.34
1110,2258032628,-1.4932,0.1543,1.3286,-197.80,252.01,210.79
1111,2258037627,-1.5698,0.1299,1.3325,-242.80,244.21,221.59
1112,2258042629,-1.6274,0.0576,1.2119,-282.32,235.06,233.54
1113,2258047628,-1.6953,-0.0273,1.1055,-310.85,225.79,246.28
1114,2258052629,-1.7705,-0.1074,1.0557,-325.43,216.95,259.21
1115,2258057629,-1.8608,-0.1680,0.9644,-326.28,209.15,272.07
1116,2258062629,-1.9565,-0.1904,0.8276,-315.24,202.56,285.06
1117,2258067628,-2.0293,-0.1899,0.7358,-293.78,197.38,297.74
1118,2258072627,-2.0898,-0.1943,0.6221,-260.43,193.78,310.79
1119,2258077868,-2.1753,-0.2168,0.5083,-218.11,192.62,323.72
1120,2258082631,-2.2563,-0.2295,0.4429,-175.85,193.41,335.79
1121,2258087628,-2.3311,-0.2129,0.4580,-139.45,195.98,346.95
1122,2258092629,-2.4268,-0.2090,0.4619,-111.83,199.76,357.38
1123,2258097627,-2.5137,-0.2119,0.4277,-93.48,204.63,367.62
1124,2258102629,-2.5918,-0.2290,0.4019,-84.09,210.30,377.68
1125,2258107628,-2.7222,-0.2441,0.4097,-82.62,215.98,387.80
1126,2258112631,-2.9033,-0.2627,0.3843,-87.74,221.59,398.29
1127,2258117628,-3.1113,-0.2700,0.3745,-98.29,226.89,409.33
1128,2258122630,-3.3140,-0.2583,0.3843,-112.13,231.59,420.49
1129,2258127631,-3.5269,-0.2666,0.3882,-128.48,235.49,432.07
1130,2258132628,-3.7739,-0.3159,0.3564,-146.28,238.05,444.45
1131,2258137629,-4.0283,-0.3804,0.3359,-164.63,238.90,457.68
1132,2258142627,-4.2324,-0.4233,0.3384,-182.80,238.23,472.13
1133,2258147627,-4.4331,-0.4775,0.3774,-200.24,235.79,487.13
1134,2258152629,-4.7241,-0.5576,0.3486,-216.71,231.59,503.17
1135,2258157629,-4.9355,-0.6465,0.3442,-231.89,225.12,520.43
1136,2258162628,-5.1133,-0.7271,0.3940,-246.10,216.10,538.84
1137,2258167630,-5.2852,-0.7979,0.4502,-259.39,204.70,558.35
1138,2258172627,-5.5146,-0.8867,0.4985,-271.22,191.10,578.78
1139,2258177629,-5.7705,-1.0073,0.5547,-282.07,174.45,600.30
1140,2258182628,-6.0278,-1.0903,0.6357,-291.59,154.51,622.50
1141,2258187628,-6.2905,-1.1929,0.7251,-300.24,131.10,645.12
1142,2258192627,-6.5459,-1.2915,0.8218,-308.23,103.90,667.93
1143,2258198201,-6.8418,-1.3691,0.9478,-317.13,66.16,695.43
1144,2258202629,-7.0161,-1.3955,1.0615,-321.89,37.07,713.66
1145,2258207629,-7.1807,-1.4209,1.1655,-324.88,-3.54,735.91
1146,2258212630,-7.2900,-1.4917,1.2446,-323.84,-48.84,757.93
1147,2258217629,-7.3271,-1.5576,1.3267,-318.35,-98.90,779.94
1148,2258222629,-7.3770,-1.6577,1.4165,-308.60,-153.35,802.26
1149,2258227629,-7.5557,-1.6748,1.4707,-295.00,-212.13,824.27
1150,2258232628,-7.7720,-1.6826,1.5322,-277.80,-273.84,845.30
1151,2258237629,-8.0527,-1.7544,1.6025,-258.41,-337.93,864.63
1152,2258242627,-8.3521,-1.9092,1.6309,-237.99,-403.05,883.23
1153,2258247629,-8.6348,-2.1250,1.6143,-217.74,-468.72,901.95
1154,2258252628,-8.9658,-2.3828,1.5269,-200.12,-534.88,921.52
1155,2258257629,-9.3462,-2.6777,1.4155,-186.16,-600.00,941.71
1156,2258262627,-9.7441,-3.0513,1.3130,-175.67,-663.41,963.17
1157,2258267629,-10.1836,-3.4038,1.1504,-168.35,-724.09,985.24
1158,2258272628,-10.7407,-3.7148,0.9819,-161.83,-781.04,1006.34
1159,2258277629,-11.3696,-4.0635,0.7773,-151.71,-833.78,1025.00
1160,2258282627,-12.0220,-4.4619,0.4390,-138.11,-881.59,1041.77
1161,2258287629,-12.5977,-4.9980,-0.0005,-114.70,-924.45,1055.73
1162,2258292628,-13.2769,-5.3970,-0.3086,-85.06,-959.94,1066.40
1163,2258297629,-14.0117,-5.7529,-0.6396,-52.07,-985.06,1069.09
1164,2258302629,-14.6733,-6.2891,-1.0386,-23.23,-1000.98,1063.35
1165,2258307627,-15.0645,-6.7168,-1.5806,1.89,-1009.82,1049.76
1166,2258312629,-15.3745,-7.0728,-2.0942,20.37,-1014.15,1028.72
1167,2258317629,-15.6104,-7.3535,-2.5098,26.40,-1015.24,999.09
1168,2258322627,-15.5293,-7.5435,-2.8071,10.49,-1015.91,960.98
1169,2258327627,-15.2593,-7.6245,-2.9795,-31.77,-1019.39,913.66
1170,2258332629,-15.0259,-7.6055,-3.3198,-96.65,-1028.54,855.79
1171,2258337782,-14.6631,-7.3936,-3.6196,-179.21,-1045.61,786.83
1172,2258342629,-13.9600,-7.0986,-3.7656,-272.26,-1070.85,708.48
1173,2258347835,-13.0771,-6.7476,-3.9180,-369.27,-1102.74,622.68
1174,2258352629,-12.2544,-6.3384,-4.0684,-468.23,-1137.13,529.88
1175,2258357629,-11.5879,-5.9082,-4.1655,-567.93,-1171.22,430.30
1176,2258362629,-10.9458,-5.3911,-4.2134,-664.02,-1201.16,325.12
1177,2258367628,-10.0181,-4.8628,-4.2168,-754.27,-1222.56,215.37
1178,2258372629,-9.2876,-4.3384,-4.1704,-833.72,-1232.99,102.68
1179,2258377629,-8.9141,-3.8984,-4.2280,-896.65,-1231.34,-10.06
1180,2258382629,-8.6494,-3.4790,-4.2754,-944.94,-1217.13,-120.06
1181,2258387628,-7.9097,-3.0186,-4.1465,-985.24,-1189.94,-225.73
1182,2258392629,-7.3306,-2.5977,-3.9717,-1021.65,-1150.12,-326.71
1183,2258397627,-7.1885,-2.2959,-3.8804,-1049.63,-1098.66,-421.52
1184,2258402627,-6.9854,-1.9932,-3.7734,-1064.39,-1037.38,-508.23
1185,2258407629,-6.6738,-1.6880,-3.5879,-1061.77,-968.23,-585.24
1186,2258412628,-6.4775,-1.3887,-3.3770,-1037.38,-893.11,-651.65
1187,2258417629,-6.4844,-1.2402,-3.2954,-986.65,-813.84,-706.65
1188,2258422628,-6.7339,-1.1514,-3.1699,-907.99,-732.56,-749.63
1189,2258427630,-7.0640,-0.9971,-2.9673,-808.72,-652.38,-779.82
1190,2258432629,-7.2617,-0.8394,-2.7627,-696.16,-575.06,-797.93
1191,2258437629,-7.3359,-0.6553,-2.5591,-579.45,-502.56,-804.63
1192,2258442629,-7.4653,-0.5503,-2.4141,-469.21,-436.59,-801.40
1193,2258447629,-7.3018,-0.3896,-2.2153,-374.94,-377.44,-789.27
1194,2258452628,-6.8423,-0.1953,-2.0112,-302.44,-324.15,-770.73
1195,2258457629,-6.3403,-0.0752,-1.8296,-251.34,-275.49,-747.07
1196,2258462629,-5.8716,0.0327,-1.6484,-218.29,-230.24,-720.24
1197,2258467629,-5.5933,0.1191,-1.4536,-200.30,-187.74,-692.56
1198,2258472627,-5.5942,0.0518,-1.3418,-191.83,-147.26,-664.51
1199,2258477628,-5.3740,0.1030,-1.2881,-185.91,-108.72,-636.95
1200,2258482627,-5.3164,0.1436,-1.2710,-176.04,-72.32,-612.38
1201,2258487629,-5.6328,0.0894,-1.2080,-157.80,-38.84,-590.18
1202,2258492628,-5.7158,0.0923,-1.0952,-131.89,-8.23,-569.51
1203,2258497629,-5.4067,0.1377,-0.9868,-100.30,20.43,-550.12
1204,2258502627,-5.0713,0.1323,-0.9487,-63.96,46.34,-531.22
1205,2258507629,-4.8623,0.1294,-0.9956,-22.68,68.23,-512.26
1206,2258512628,-4.6953,0.0889,-1.0811,21.40,84.82,-492.93
1207,2258517629,-4.4600,0.0444,-1.1431,63.78,96.71,-473.23
1208,2258522629,-4.2246,-0.0312,-1.1611,99.27,104.76,-453.29
1209,2258527629,-3.9448,-0.1201,-1.1855,125.43,110.00,-433.05
1210,2258532629,-3.6895,-0.1846,-1.2632,139.39,112.38,-413.60
1211,2258537627,-3.6558,-0.2524,-1.3354,141.10,112.26,-395.85
1212,2258542627,-3.7246,-0.3301,-1.3301,128.90,110.91,-380.00
1213,2258547629,-3.7402,-0.3252,-1.2383,105.06,109.82,-366.10
1214,2258552629,-3.7661,-0.2734,-1.0933,71.04,110.43,-354.88
1215,2258557629,-3.8198,-0.2524,-0.9248,30.67,113.48,-346.04
1216,2258562628,-3.8115,-0.2510,-0.7827,-11.10,118.54,-338.72
1217,2258567629,-3.6733,-0.2441,-0.6885,-49.39,125.24,-332.13
1218,2258572627,-3.5327,-0.2930,-0.6079,-80.12,132.44,-325.49
1219,2258577630,-3.3984,-0.3418,-0.5063,-100.37,139.94,-317.62
1220,2258582627,-3.1353,-0.3428,-0.4175,-109.02,147.74,-308.29
1221,2258587629,-2.8164,-0.3706,-0.3862,-105.79,154.57,-297.74
1222,2258592628,-2.6475,-0.3975,-0.4160,-91.46,159.51,-285.73
1223,2258597629,-2.5806,-0.4346,-0.4727,-66.89,161.77,-272.93
1224,2258602627,-2.4858,-0.4888,-0.5352,-35.55,161.10,-259.82
1225,2258607629,-2.3345,-0.5278,-0.5811,-1.65,157.62,-246.65
1226,2258612628,-2.2114,-0.6060,-0.6001,29.94,152.07,-234.09
1227,2258617629,-2.1104,-0.6929,-0.6147,55.43,145.37,-222.26
1228,2258622627,-1.9946,-0.7598,-0.6333,72.44,137.68,-211.40
1229,2258627627,-1.8882,-0.8237,-0.6377,80.55,129.02,-202.01
1230,2258632627,-1.8154,-0.9131,-0.6060,79.63,120.37,-193.84
1231,2258637632,-1.7651,-0.9683,-0.5679,70.91,111.83,-187.38
1232,2258642627,-1.7686,-0.9663,-0.5264,56.16,104.09,-182.93
1233,2258647627,-1.8350,-0.9390,-0.4707,36.89,96.77,-180.98
1234,2258652627,-1.9321,-0.9497,-0.3838,14.27,90.55,-181.34
1235,2258657627,-1.9595,-0.9551,-0.3003,-10.12,85.49,-183.11
1236,2258662632,-1.8877,-0.9497,-0.2388,-34.09,83.05,-185.85
1237,2258667627,-1.7910,-0.9312,-0.1973,-55.73,80.79,-189.39
1238,2258672799,-1.7144,-0.9438,-0.1699,-73.35,79.45,-192.99
1239,2258677629,-1.6416,-0.9736,-0.1602,-85.55,78.41,-195.98
1240,2258682629,-1.5151,-0.9917,-0.1616,-91.46,78.23,-198.23
1241,2258687627,-1.4189,-1.0220,-0.1782,-90.98,77.80,-199.76
1242,2258692627,-1.3579,-1.0610,-0.1938,-85.37,77.13,-200.43
1243,2258697627,-1.2686,-1.0962,-0.2041,-75.73,76.28,-200.30
1244,2258702627,-1.1753,-1.1284,-0.2061,-62.99,74.88,-199.51
1245,2258707627,-1.1050,-1.1641,-0.2178,-48.48,73.29,-198.05
1246,2258712627,-1.0322,-1.1899,-0.2227,-32.93,71.22,-195.98
1247,2258717627,-0.9429,-1.2051,-0.2207,-17.20,68.60,-193.54
1248,2258722627,-0.8555,-1.2212,-0.2363,-2.68,65.49,-190.73
1249,2258727627,-0.7988,-1.2446,-0.2412,9.33,62.01,-187.93
1250,2258732627,-0.8008,-1.2705,-0.2417,17.50,58.35,-185.43
1251,2258737632,-0.8354,-1.2949,-0.2368,20.98,54.51,-183.60
1252,2258742628,-0.8525,-1.3223,-0.2275,19.70,50.91,-182.20
1253,2258747627,-0.8569,-1.3345,-0.2295,14.45,47.87,-181.34
1254,2258752627,-0.8428,-1.3311,-0.2393,6.22,45.12,-180.98
1255,2258757627,-0.8350,-1.3237,-0.2583,-4.21,42.20,-181.34
1256,2258763247,-0.8286,-1.3071,-0.2583,-18.41,39.39,-182.32
1257,2258767629,-0.8408,-1.2969,-0.2661,-28.17,37.74,-183.35
1258,2258772629,-0.8384,-1.2881,-0.2695,-39.63,36.16,-184.76
1259,2258777627,-0.8184,-1.2656,-0.2778,-48.84,34.88,-186.22
1260,2258782628,-0.7812,-1.2520,-0.2930,-55.00,33.96,-187.44
1261,2258787629,-0.7524,-1.2368,-0.2905,-57.56,33.11,-188.66
1262,2258792628,-0.7188,-1.2349,-0.2861,-56.95,32.50,-189.51
1263,2258797629,-0.6885,-1.2285,-0.2861,-53.35,31.89,-190.06
1264,2258802627,-0.6714,-1.2139,-0.2827,-46.95,31.16,-190.49
1265,2258807629,-0.6650,-1.2109,-0.2656,-38.48,30.37,-190.61
1266,2258812627,-0.6392,-1.2017,-0.2554,-28.41,29.39,-190.61
1267,2258817627,-0.5981,-1.1851,-0.2544,-17.44,28.54,-190.43
1268,2258822629,-0.5791,-1.1641,-0.2417,-6.40,27.07,-190.18
1269,2258827629,-0.5840,-1.1577,-0.2383,3.54,25.30,-189.94
1270,2258832631,-0.5718,-1.1392,-0.2339,11.52,23.72,-189.45
1271,2258837627,-0.5347,-1.1162,-0.2319,17.74,21.28,-188.90
1272,2258842629,-0.5083,-1.0977,-0.2515,20.00,19.76,-188.54
1273,2258847629,-0.4805,-1.0781,-0.2754,20.06,17.56,-188.11
1274,2258852629,-0.4727,-1.0649,-0.2871,17.01,15.24,-187.68
1275,2258857629,-0.4619,-1.0459,-0.2979,10.98,13.23,-187.13
1276,2258862628,-0.4414,-1.0122,-0.3062,2.44,11.40,-186.95
1277,2258867629,-0.4185,-0.9917,-0.3174,-7.62,10.00,-186.77
1278,2258872628,-0.4067,-0.9717,-0.3335,-18.48,8.78,-186.71
1279,2258877627,-0.4185,-0.9492,-0.3477,-29.33,7.99,-186.65
1280,2258882898,-0.4199,-0.9229,-0.3613,-38.96,7.50,-186.59
1281,2258887629,-0.4062,-0.8911,-0.3823,-46.46,7.32,-186.40
1282,2258892627,-0.3975,-0.8735,-0.3970,-51.10,7.26,-185.79
1283,2258897629,-0.3760,-0.8501,-0.4038,-52.99,7.38,-184.88
1284,2258902629,-0.3608,-0.8252,-0.4160,-52.26,7.56,-183.66
1285,2258907629,-0.3555,-0.8081,-0.4209,-49.15,7.56,-182.01
1286,2258912628,-0.3379,-0.7764,-0.4209,-44.27,7.68,-180.12
1287,2258917629,-0.3115,-0.7534,-0.4351,-37.74,7.93,-177.68
1288,2258922629,-0.2671,-0.7314,-0.4429,-30.37,8.29,-174.76
1289,2258927629,-0.2119,-0.7012,-0.4595,-22.68,8.54,-171.65
1290,2258932679,-0.1616,-0.6792,-0.4731,-15.24,8.48,-168.17
1291,2258937627,-0.1367,-0.6567,-0.4883,-9.21,8.54,-164.63
1292,2258942629,-0.1318,-0.6465,-0.4878,-5.43,8.60,-161.04
1293,2258947629,-0.1128,-0.6455,-0.4829,-4.63,9.02,-157.32
1294,2258952628,-0.0664,-0.6475,-0.4858,-6.65,9.39,-153.41
1295,2258957629,-0.0503,-0.6284,-0.4883,-10.67,10.12,-149.51
1296,2258962629,-0.0605,-0.6289,-0.4883,-16.16,10.85,-145.91
1297,2258967627,-0.0610,-0.6309,-0.4893,-22.07,11.59,-142.20
1298,2258972627,-0.0479,-0.6177,-0.5024,-27.26,12.50,-138.84
1299,2258977629,-0.0322,-0.5991,-0.5093,-30.98,13.11,-135.61
1300,2258982628,-0.0317,-0.5898,-0.5054,-33.41,13.72,-132.74
1301,2258987630,-0.0332,-0.5781,-0.5107,-34.45,14.27,-129.88
1302,2258992627,-0.0449,-0.5669,-0.5063,-34.57,14.63,-127.38
1303,2258997630,-0.0522,-0.5410,-0.5039,-33.72,14.94,-124.76
1304,2259002628,-0.0420,-0.5264,-0.5146,-32.26,15.18,-122.32
1305,2259008035,-0.0356,-0.4937,-0.5161,-30.06,15.30,-119.27
1306,2259012629,-0.0210,-0.4795,-0.5107,-28.78,15.61,-117.26
1307,2259017629,-0.0024,-0.4473,-0.4956,-27.38,16.04,-114.51
1308,2259022629,0.0176,-0.4268,-0.4946,-26.28,16.71,-111.52
1309,2259027628,0.0479,-0.3896,-0.4956,-25.24,17.32,-108.29
1310,2259032630,0.0703,-0.3667,-0.4971,-24.09,17.93,-105.00
1311,2259037629,0.0933,-0.3540,-0.5059,-23.11,18.54,-101.46
1312,2259042629,0.1270,-0.3452,-0.5073,-22.26,19.21,-97.50
1313,2259047629,0.1626,-0.3384,-0.5166,-21.89,19.88,-93.48
1314,2259052629,0.1753,-0.3330,-0.5264,-22.01,20.18,-89.45
1315,2259057629,0.1636,-0.3276,-0.5278,-22.87,20.49,-85.67
1316,2259062713,0.1626,-0.3340,-0.5371,-24.33,20.79,-82.07
1317,2259067628,0.1665,-0.3325,-0.5381,-26.59,20.85,-78.66
1318,2259072629,0.1665,-0.3403,-0.5347,-29.51,20.85,-75.55
1319,2259077629,0.1675,-0.3491,-0.5181,-33.17,21.04,-72.44
1320,2259082629,0.1704,-0.3574,-0.5088,-36.95,21.22,-69.39
1321,2259087630,0.1748,-0.3657,-0.4946,-40.24,21.46,-66.52
1322,2259092629,0.1943,-0.3594,-0.4863,-42.44,21.71,-63.66
1323,2259097629,0.2012,-0.3633,-0.4873,-42.87,21.83,-61.04
1324,2259102629,0.2051,-0.3667,-0.4790,-41.59,21.95,-58.48
1325,2259107628,0.2217,-0.3638,-0.4731,-38.41,21.95,-55.79
1326,2259112629,0.2456,-0.3589,-0.4697,-33.72,22.07,-53.29
1327,2259117629,0.2656,-0.3564,-0.4634,-27.93,22.13,-50.67
1328,2259122629,0.2881,-0.3599,-0.4634,-21.77,21.89,-48.23
1329,2259127630,0.2920,-0.3677,-0.4609,-16.52,21.71,-46.16
1330,2259132629,0.2969,-0.3711,-0.4502,-12.68,21.34,-43.90
1331,2259137629,0.2964,-0.3726,-0.4443,-11.04,21.28,-42.07
1332,2259142630,0.3022,-0.3745,-0.4463,-11.10,21.10,-40.30
1333,2259147627,0.3027,-0.3774,-0.4492,-12.62,20.91,-38.66
1334,2259152629,0.3140,-0.3677,-0.4507,-15.18,20.73,-37.32
1335,2259157629,0.3296,-0.3618,-0.4604,-18.41,20.30,-36.04
1336,2259162629,0.3359,-0.3691,-0.4482,-22.13,20.18,-34.82
1337,2259167628,0.3374,-0.3745,-0.4380,-26.04,19.76,-33.60
1338,2259172629,0.3472,-0.3711,-0.4312,-29.88,19.39,-32.38
1339,2259177629,0.3584,-0.3696,-0.4292,-32.87,18.96,-31.10
1340,2259182629,0.3818,-0.3735,-0.4351,-34.70,18.60,-29.94
1341,2259187628,0.4058,-0.3613,-0.4429,-35.18,18.11,-28.72
1342,2259192628,0.4155,-0.3604,-0.4502,-34.39,17.50,-27.56
1343,2259197989,0.4312,-0.3594,-0.4507,-32.26,16.95,-26.22
1344,2259202629,0.4458,-0.3608,-0.4487,-30.73,16.65,-25.37
1345,2259207629,0.4624,-0.3701,-0.4434,-28.84,16.16,-24.27
1346,2259212629,0.4668,-0.3774,-0.4448,-27.20,15.73,-23.17
1347,2259217627,0.4756,-0.3906,-0.4492,-25.98,15.43,-21.95
1348,2259222969,0.4854,-0.4067,-0.4482,-24.63,15.37,-20.37
1349,2259227629,0.4907,-0.4141,-0.4443,-23.54,15.49,-19.33
1350,2259232628,0.5088,-0.4263,-0.4404,-21.95,15.61,-17.80
1351,2259237629,0.5200,-0.4341,-0.4434,-19.82,15.61,-16.28
1352,2259242629,0.5317,-0.4351,-0.4360,-17.32,15.67,-14.94
1353,2259247704,0.5410,-0.4243,-0.4365,-14.63,15.61,-13.72
1354,2259252628,0.5479,-0.4150,-0.4438,-11.83,15.79,-12.93
1355,2259257629,0.5537,-0.4023,-0.4395,-9.02,15.85,-12.44
1356,2259262627,0.5508,-0.3936,-0.4375,-6.77,15.79,-12.38
1357,2259267629,0.5576,-0.3892,-0.4385,-5.06,15.91,-12.44
1358,2259272628,0.5679,-0.3828,-0.4375,-4.15,15.91,-12.80
1359,2259277629,0.5615,-0.3809,-0.4390,-3.84,15.85,-13.29
1360,2259282627,0.5605,-0.3818,-0.4468,-4.45,15.61,-13.78
1361,2259287629,0.5664,-0.3828,-0.4419,-5.67,15.49,-14.33
1362,2259292628,0.5757,-0.3882,-0.4546,-7.74,15.43,-14.88
1363,2259297629,0.5806,-0.3940,-0.4536,-10.67,15.37,-15.30
1364,2259302627,0.5962,-0.4087,-0.4492,-14.02,15.30,-15.67
1365,2259307629,0.6064,-0.4175,-0.4551,-17.44,15.30,-15.85
1366,2259312628,0.6089,-0.4287,-0.4546,-20.30,15.43,-15.91
1367,2259317629,0.6040,-0.4399,-0.4512,-22.32,15.61,-15.91
1368,2259322627,0.6079,-0.4492,-0.4409,-23.11,15.79,-15.79
1369,2259327629,0.6084,-0.4512,-0.4424,-22.20,16.10,-15.49
1370,2259332628,0.6064,-0.4521,-0.4453,-19.51,16.16,-15.12
1371,2259337629,0.6118,-0.4424,-0.4448,-15.12,16.28,-14.88
1372,2259342629,0.6279,-0.4263,-0.4531,-9.39,16.28,-14.57
1373,2259347629,0.6313,-0.4214,-0.4526,-3.48,16.16,-14.39
1374,2259352629,0.6216,-0.4277,-0.4575,2.38,15.91,-14.33
1375,2259357628,0.6182,-0.4277,-0.4688,7.01,15.67,-14.33
1376,2259362627,0.6187,-0.4248,-0.4634,10.18,15.30,-14.39
1377,2259367631,0.6099,-0.4302,-0.4648,11.16,14.88,-14.51
1378,2259372635,0.6045,-0.4272,-0.4644,10.24,14.63,-14.82
1379,2259377627,0.6035,-0.4253,-0.4600,7.50,14.15,-15.18
1380,2259382629,0.5977,-0.4233,-0.4565,3.48,14.09,-15.67
1381,2259387629,0.6030,-0.4160,-0.4590,-1.28,13.96,-15.98
1382,2259392628,0.6108,-0.4106,-0.4580,-6.04,13.72,-16.28
1383,2259397630,0.6187,-0.4053,-0.4570,-10.12,13.60,-16.65
1384,2259402627,0.6191,-0.3950,-0.4565,-13.48,13.72,-16.89
1385,2259407632,0.6206,-0.3853,-0.4438,-15.37,13.90,-17.07
1386,2259412631,0.6279,-0.3892,-0.4453,-15.91,14.02,-17.13
1387,2259417998,0.6230,-0.3799,-0.4429,-14.57,14.27,-17.07
1388,2259422628,0.6187,-0.3765,-0.4517,-12.50,14.39,-17.01
1389,2259427630,0.6152,-0.3755,-0.4561,-8.78,14.45,-16.89
1390,2259432628,0.6108,-0.3809,-0.4580,-4.33,14.45,-16.71
1391,2259437931,0.6060,-0.3848,-0.4585,1.34,14.33,-16.22
1392,2259442630,0.6113,-0.3857,-0.4575,4.82,14.39,-15.85
1393,2259447627,0.6167,-0.3882,-0.4609,8.41,14.15,-15.30
1394,2259452627,0.6196,-0.3896,-0.4653,10.98,14.15,-14.76
1395,2259457629,0.6235,-0.3945,-0.4644,12.32,14.09,-14.02
1396,2259462629,0.6313,-0.3916,-0.4717,12.32,13.84,-13.35
1397,2259467628,0.6313,-0.3960,-0.4780,10.98,13.96,-12.80
1398,2259472630,0.6226,-0.3931,-0.4756,8.54,13.84,-12.26
1399,2259477629,0.6143,-0.3853,-0.4756,5.06,13.78,-11.95
1400,2259482628,0.6118,-0.3721,-0.4717,0.85,13.96,-11.77
1401,2259487629,0.6064,-0.3687,-0.4736,-3.23,13.90,-11.95
1402,2259492627,0.6118,-0.3589,-0.4688,-6.95,14.09,-12.13
1403,2259497628,0.6182,-0.3530,-0.4702,-9.39,13.96,-12.26
1404,2259502629,0.6294,-0.3477,-0.4761,-10.06,13.96,-12.44
1405,2259507629,0.6382,-0.3442,-0.4707,-8.96,13.96,-12.62
1406,2259512629,0.6484,-0.3452,-0.4741,-6.16,13.84,-12.56
1407,2259517628,0.6631,-0.3516,-0.4805,-2.38,13.66,-12.44
1408,2259522629,0.6621,-0.3589,-0.4839,1.89,13.17,-12.20
1409,2259527629,0.6499,-0.3726,-0.4819,5.85,12.74,-11.95
1410,2259532629,0.6367,-0.3843,-0.4844,8.96,12.32,-11.71
1411,2259537628,0.6313,-0.3872,-0.4854,10.85,11.95,-11.28
1412,2259542629,0.6216,-0.3940,-0.4873,11.52,11.71,-10.91
1413,2259547629,0.6191,-0.3999,-0.4819,10.73,11.40,-10.43
1414,2259552630,0.6279,-0.3853,-0.4868,9.21,11.10,-10.00
1415,2259557628,0.6489,-0.3643,-0.4897,7.26,10.79,-9.51
1416,2259562629,0.6646,-0.3530,-0.4932,5.55,10.67,-9.33
1417,2259567629,0.6738,-0.3428,-0.4912,4.15,10.49,-9.09
1418,2259572629,0.6758,-0.3350,-0.4946,3.05,10.00,-8.72
1419,2259577628,0.6855,-0.3350,-0.4990,2.44,9.88,-8.29
1420,2259582630,0.6938,-0.3271,-0.4995,2.32,9.57,-7.93
1421,2259587627,0.6968,-0.3330,-0.5122,2.50,9.33,-7.26
1422,2259592629,0.6978,-0.3350,-0.5122,2.62,8.90,-6.71
1423,2259597629,0.6958,-0.3379,-0.5083,2.44,8.35,-6.28
1424,2259602628,0.6909,-0.3467,-0.5112,1.77,7.80,-5.73
1425,2259607627,0.6758,-0.3511,-0.5029,0.37,7.38,-5.43
1426,2259612627,0.6660,-0.3506,-0.5068,-1.04,6.89,-4.94
1427,2259617629,0.6567,-0.3540,-0.5029,-2.68,6.46,-4.57
1428,2259622628,0.6475,-0.3589,-0.5029,-4.33,5.98,-4.39
1429,2259627627,0.6572,-0.3647,-0.5039,-5.73,5.49,-3.96
1430,2259632629,0.6577,-0.3643,-0.4971,-6.71,4.94,-3.66
1431,2259637629,0.6572,-0.3643,-0.5020,-7.07,4.63,-3.29
1432,2259642629,0.6519,-0.3677,-0.4995,-7.20,3.90,-2.93
1433,2259647627,0.6431,-0.3618,-0.4956,-7.07,3.41,-2.50
1434,2259652629,0.6455,-0.3618,-0.4966,-6.65,2.87,-2.13
1435,2259657628,0.6484,-0.3569,-0.4946,-6.22,2.44,-1.95
1436,2259662627,0.6475,-0.3564,-0.4941,-5.73,2.13,-1.52
1437,2259667627,0.6523,-0.3589,-0.4902,-5.49,1.89,-1.22
1438,2259672627,0.6606,-0.3608,-0.4946,-5.12,1.52,-0.91
1439,2259677629,0.6670,-0.3579,-0.4927,-5.43,1.22,-0.61
1440,2259682627,0.6709,-0.3564,-0.4834,-6.22,0.98,-0.61
1441,2259687632,0.6792,-0.3462,-0.4883,-7.38,0.98,-0.67
1442,2259692628,0.6855,-0.3438,-0.4868,-9.39,0.91,-0.79
1443,2259697629,0.6919,-0.3525,-0.4868,-10.85,0.73,-0.98
1444,2259702630,0.6968,-0.3530,-0.4873,-11.83,0.67,-1.16
1445,2259707628,0.6938,-0.3540,-0.4858,-12.68,0.91,-1.28
1446,2259712627,0.6899,-0.3569,-0.4775,-12.87,0.98,-1.40
1447,2259717629,0.6890,-0.3564,-0.4707,-12.38,0.91,-1.16
1448,2259722628,0.6963,-0.3550,-0.4702,-11.04,1.16,-1.04
1449,2259727629,0.7007,-0.3481,-0.4746,-8.66,1.22,-0.67
1450,2259732629,0.7041,-0.3506,-0.4741,-5.55,1.40,-0.49
1451,2259737629,0.6963,-0.3477,-0.4678,-1.95,1.59,-0.06
1452,2259742629,0.6943,-0.3452,-0.4702,1.65,1.59,0.24
1453,2259747628,0.6904,-0.3452,-0.4683,4.82,1.65,0.55
1454,2259752627,0.6904,-0.3477,-0.4653,7.44,1.71,0.79
1455,2259757629,0.6968,-0.3374,-0.4644,9.15,1.89,0.73
1456,2259762627,0.6919,-0.3428,-0.4658,9.82,1.83,0.49
1457,2259767629,0.6929,-0.3408,-0.4736,9.45,1.89,0.18
1458,2259772629,0.6914,-0.3438,-0.4717,8.23,1.71,-0.43
1459,2259777630,0.6865,-0.3467,-0.4844,6.10,1.71,-0.98
1460,2259782629,0.6880,-0.3535,-0.4707,3.29,1.52,-1.65
1461,2259787627,0.6870,-0.3530,-0.4766,0.06,1.59,-2.32
1462,2259792629,0.6880,-0.3521,-0.4702,-3.35,1.34,-2.99
1463,2259797939,0.6816,-0.3535,-0.4795,-7.13,1.34,-3.84
1464,2259802629,0.6807,-0.3569,-0.4790,-9.15,1.16,-4.33
1465,2259807628,0.6729,-0.3564,-0.4761,-10.79,1.10,-4.82
1466,2259812629,0.6724,-0.3555,-0.4668,-11.40,0.91,-5.18
1467,2259817627,0.6797,-0.3545,-0.4639,-11.04,1.04,-5.37
1468,2259822632,0.6929,-0.3511,-0.4653,-9.51,1.04,-5.55
1469,2259827628,0.6992,-0.3438,-0.4697,-7.44,0.98,-5.43
1470,2259832627,0.7080,-0.3374,-0.4707,-4.70,1.10,-5.43
1471,2259837649,0.7124,-0.3364,-0.4707,-1.71,1.16,-5.18
