# skilleye imu stream v1
# device=xiao_esp32c6 imu=mpu6050 addr=0x68
# rate_hz=200 accel_range_g=16 gyro_range_dps=2000 dlpf_hz=94
# units: accel in g, gyro in deg/s, t_us in microseconds since boot (monotonic)
# no shared clock with the camera -- tap the racket once before each take
# so both recordings share a spike to align on
seq,t_us,ax,ay,az,gx,gy,gz
0,2277927629,0.2334,-0.8701,0.0059,24.33,22.26,3.60
1,2277932634,0.2046,-0.9551,0.0581,27.38,19.57,2.38
2,2277937629,0.1992,-0.9492,0.1040,29.09,16.04,1.16
3,2277942627,0.2183,-1.0020,0.1040,29.21,12.07,0.00
4,2277947631,0.2554,-0.9966,0.1084,27.74,7.87,-1.10
5,2277952628,0.3027,-0.9849,0.0986,24.63,3.72,-2.01
6,2277957629,0.3408,-1.0098,0.0571,20.37,-0.98,-2.56
7,2277962627,0.3506,-1.0146,0.0684,15.00,-5.67,-2.56
8,2277967629,0.3115,-0.9678,0.1323,8.84,-9.51,-2.68
9,2277972628,0.2490,-0.9185,0.1772,2.13,-11.89,-2.93
10,2277977629,0.1963,-0.8960,0.1670,-5.43,-13.48,-3.41
11,2277982627,0.1558,-0.8955,0.1680,-13.29,-14.02,-3.72
12,2277987631,0.1221,-0.9048,0.1416,-20.91,-13.72,-3.96
13,2277992628,0.1099,-0.9141,0.1050,-27.87,-13.05,-3.78
14,2277997629,0.1060,-0.9243,0.0952,-33.78,-11.89,-3.54
15,2278002627,0.1045,-0.9185,0.0864,-38.78,-10.24,-3.23
16,2278007631,0.1055,-0.9204,0.0723,-42.50,-8.05,-2.87
17,2278012628,0.1123,-0.9209,0.0649,-45.06,-5.85,-2.50
18,2278017629,0.1309,-0.9302,0.0518,-46.28,-3.60,-2.07
19,2278022627,0.1377,-0.9463,0.0312,-45.85,-1.34,-1.34
20,2278027629,0.1553,-0.9541,-0.0010,-44.09,0.67,-0.24
21,2278032628,0.1812,-0.9331,-0.0137,-41.22,2.62,0.73
22,2278037629,0.1748,-0.9014,-0.0190,-37.62,4.39,1.59
23,2278042627,0.1592,-0.8950,-0.0239,-33.96,6.16,2.13
24,2278047631,0.1494,-0.9199,-0.0303,-30.12,7.68,2.56
25,2278052628,0.1187,-0.9268,-0.0376,-27.13,8.90,2.74
26,2278057629,0.1338,-0.9385,-0.0317,-24.88,10.06,2.87
27,2278062627,0.1387,-0.9482,-0.0210,-23.11,11.28,2.74
28,2278067629,0.1401,-0.9556,-0.0483,-22.44,12.13,2.56
29,2278072628,0.1514,-0.9736,-0.0361,-22.26,12.80,2.01
30,2278077629,0.1729,-0.9927,-0.0396,-21.95,13.29,1.71
31,2278082627,0.1816,-1.0142,-0.0498,-21.52,13.72,1.40
32,2278087629,0.1709,-1.0483,-0.0449,-20.06,14.33,1.22
33,2278092628,0.1479,-1.0156,-0.0801,-16.71,15.30,1.40
34,2278097629,0.1919,-1.0122,-0.1484,-10.18,16.10,1.52
35,2278102802,0.2349,-1.0322,-0.1582,-1.65,16.95,2.07
36,2278107629,0.2319,-1.0312,-0.1284,7.44,18.60,3.05
37,2278112628,0.2134,-0.9600,-0.1313,17.07,20.73,3.78
38,2278118094,0.2505,-0.9795,-0.1338,27.74,23.11,4.51
39,2278122631,0.2856,-0.9854,-0.1187,39.15,25.24,5.30
40,2278127628,0.2734,-0.9829,-0.1011,50.24,27.20,6.40
41,2278132629,0.2451,-0.9546,-0.0684,59.70,28.96,7.32
42,2278137629,0.2036,-0.9204,-0.0405,65.49,30.49,8.05
43,2278142629,0.1733,-0.8730,0.0005,66.77,31.59,8.29
44,2278147629,0.1562,-0.9009,0.0093,63.48,32.44,8.54
45,2278152629,0.1289,-0.9277,0.0361,56.28,32.44,9.09
46,2278157627,0.1348,-0.9097,0.0640,46.16,32.07,9.15
47,2278162629,0.1494,-0.9443,0.0444,34.27,31.22,9.21
48,2278167628,0.1177,-0.9492,0.0806,21.95,30.18,9.09
49,2278172629,0.1050,-0.9233,0.0688,9.76,29.39,8.66
50,2278177627,0.1582,-0.9556,0.0269,-0.73,28.23,7.68
51,2278182627,0.1919,-1.0327,0.0361,-9.45,27.44,7.13
52,2278187629,0.2759,-1.0112,-0.1733,-14.09,26.16,6.40
53,2278192627,0.2588,-1.0381,0.0371,-12.74,25.61,5.37
54,2278197631,0.2485,-1.0757,0.0825,-12.56,26.71,4.57
55,2278202629,0.2124,-1.0381,0.0127,-13.60,28.72,3.90
56,2278207629,0.1440,-1.0288,-0.0610,-13.72,30.79,3.41
57,2278212627,0.0977,-1.0122,-0.0742,-11.28,32.87,2.56
58,2278217629,0.0962,-1.0200,-0.0713,-7.68,33.66,1.77
59,2278222629,0.1357,-1.0352,-0.0488,-2.26,34.02,0.49
60,2278227629,0.1860,-1.0244,-0.0322,3.72,33.60,-0.73
61,2278232628,0.2197,-1.0068,-0.0361,9.70,32.68,-1.89
62,2278237629,0.2129,-0.9849,-0.0327,14.88,31.46,-3.05
63,2278242629,0.1919,-0.9678,-0.0259,19.33,29.76,-4.15
64,2278247629,0.1782,-0.9497,-0.0010,22.74,27.99,-5.37
65,2278252628,0.1807,-0.9497,0.0044,25.18,26.16,-6.71
66,2278257629,0.1860,-0.9370,0.0156,26.34,24.57,-8.11
67,2278262629,0.2065,-0.9292,0.0093,26.89,23.11,-9.63
68,2278267629,0.2402,-0.9146,-0.0146,26.95,21.83,-11.22
69,2278272628,0.2671,-0.9077,-0.0234,25.67,20.49,-12.93
70,2278277629,0.2847,-0.9038,-0.0200,22.68,19.09,-14.63
71,2278282629,0.3052,-0.8931,-0.0195,17.38,17.62,-16.40
72,2278287630,0.3457,-0.8765,-0.0264,9.82,15.73,-18.17
73,2278292627,0.3521,-0.9014,0.0107,1.16,13.84,-19.76
74,2278297628,0.3721,-0.8921,0.0229,-7.62,11.65,-21.46
75,2278302629,0.3999,-0.8735,0.0337,-15.37,9.82,-23.05
76,2278307628,0.4082,-0.8867,0.0464,-21.59,8.29,-24.88
77,2278312627,0.4028,-0.9165,0.0654,-25.79,6.83,-26.22
78,2278317629,0.3936,-0.9419,0.0815,-27.99,6.34,-27.13
79,2278322629,0.3892,-0.9487,0.0781,-28.35,6.59,-27.50
80,2278327628,0.3867,-0.9517,0.0454,-27.20,7.50,-27.20
81,2278332629,0.3740,-0.9482,0.0234,-24.76,8.84,-26.59
82,2278337627,0.3623,-0.9385,-0.0127,-21.46,10.06,-25.67
83,2278342630,0.3477,-0.9551,-0.0200,-17.80,11.22,-24.51
84,2278347628,0.3462,-0.9570,-0.0200,-13.96,12.13,-22.87
85,2278352629,0.3516,-0.9697,-0.0239,-10.06,13.05,-20.91
86,2278357627,0.3657,-0.9536,-0.0303,-6.10,13.96,-18.78
87,2278362629,0.4106,-0.8975,-0.0317,-2.13,14.76,-16.71
88,2278367628,0.4268,-0.8633,-0.0103,1.59,15.79,-15.00
89,2278372629,0.4390,-0.8306,-0.0127,5.00,16.83,-13.78
90,2278377627,0.5483,-0.7070,-0.1099,10.73,15.91,-14.21
91,2278382629,0.4077,-0.9849,0.1694,19.02,14.70,-15.43
92,2278387629,0.3037,-1.1123,0.1191,25.61,14.39,-14.39
93,2278392629,0.2568,-1.0454,-0.0083,29.76,14.33,-11.77
94,2278397627,0.2632,-0.9575,-0.0210,30.85,14.88,-8.96
95,2278402629,0.3213,-0.9536,-0.0029,28.60,15.91,-5.85
96,2278407628,0.3979,-0.9429,-0.0083,23.72,16.83,-2.62
97,2278412629,0.4604,-0.9263,0.0088,17.74,17.38,0.30
98,2278417627,0.4707,-0.9126,0.0312,12.13,17.13,2.74
99,2278422629,0.4614,-0.9097,0.0425,8.23,16.16,4.82
100,2278427628,0.4316,-0.9224,0.0415,6.22,14.70,6.46
101,2278432627,0.4194,-0.9521,0.0430,5.79,12.74,8.11
102,2278437629,0.4146,-1.0312,0.0215,6.46,10.00,10.24
103,2278442627,0.3931,-0.9932,0.0542,7.68,6.95,12.56
104,2278447627,0.3809,-0.9448,0.0796,8.29,4.21,14.02
105,2278452627,0.3560,-0.9536,0.0693,7.99,1.71,15.18
106,2278457629,0.3647,-0.9497,0.0601,7.01,-0.73,16.40
107,2278462629,0.3672,-0.9419,0.0532,5.61,-2.93,17.38
108,2278467629,0.3647,-0.9268,0.0430,3.72,-4.51,18.23
109,2278472628,0.3413,-0.9053,0.0464,1.65,-5.91,18.60
110,2278477629,0.3247,-0.8970,0.0581,-0.67,-6.65,18.17
111,2278482629,0.3154,-0.9087,0.0581,-3.23,-7.01,17.44
112,2278487629,0.2959,-0.9258,0.0542,-6.04,-7.01,16.34
113,2278492628,0.2827,-0.9448,0.0679,-8.72,-6.46,15.06
114,2278497630,0.2769,-0.9634,0.0527,-11.28,-5.79,13.48
115,2278502629,0.2690,-0.9751,0.0464,-13.17,-4.88,11.95
116,2278507628,0.2681,-0.9810,0.0376,-14.27,-3.96,10.37
117,2278512629,0.2681,-0.9863,0.0229,-14.39,-2.93,8.96
118,2278517629,0.2725,-0.9858,0.0200,-13.54,-1.77,7.32
119,2278522629,0.2759,-0.9824,0.0225,-11.89,-0.67,6.10
120,2278527628,0.2939,-0.9609,0.0156,-9.94,0.49,4.82
121,2278532629,0.3018,-0.9453,0.0161,-7.68,1.71,3.60
122,2278537627,0.2974,-0.9512,0.0029,-5.49,3.05,2.44
123,2278542629,0.2959,-0.9653,-0.0059,-3.48,4.15,1.46
124,2278547628,0.2808,-0.9507,-0.0122,-2.01,5.37,0.61
125,2278552629,0.2651,-0.9370,-0.0063,-0.91,6.28,-0.24
126,2278557627,0.2607,-0.9355,0.0068,-0.85,7.20,-1.40
127,2278562629,0.2603,-0.9346,0.0239,-1.10,8.23,-2.50
128,2278567628,0.2705,-0.9282,0.0249,-1.28,9.27,-3.78
129,2278572707,0.2871,-0.9248,0.0288,-1.04,10.00,-4.88
130,2278577627,0.2886,-0.9365,0.0269,-0.37,10.67,-5.98
131,2278582629,0.2935,-0.9438,0.0176,0.18,10.91,-6.71
132,2278587628,0.2861,-0.9395,0.0112,0.30,11.10,-7.44
133,2278592629,0.2734,-0.9395,0.0117,-0.12,11.10,-8.05
134,2278597629,0.2749,-0.9307,0.0146,-1.10,11.52,-8.54
135,2278602630,0.2852,-0.9233,0.0176,-2.13,11.65,-9.09
136,2278607629,0.2886,-0.9155,0.0122,-2.99,11.59,-9.39
137,2278612628,0.2861,-0.9087,0.0132,-3.41,11.65,-9.76
138,2278617629,0.2827,-0.9087,0.0137,-3.35,12.07,-10.06
139,2278623166,0.2905,-0.9072,0.0205,-2.56,12.20,-10.30
140,2278627629,0.3003,-0.9160,0.0234,-1.28,12.13,-10.37
141,2278632629,0.3003,-0.9331,0.0259,0.24,12.44,-10.30
142,2278637629,0.3115,-0.9321,0.0205,1.89,12.62,-10.06
143,2278642629,0.3149,-0.9287,0.0327,3.54,12.93,-9.76
144,2278647627,0.3140,-0.9214,0.0229,4.94,13.35,-9.39
145,2278652627,0.3135,-0.9263,0.0327,6.16,13.78,-9.02
146,2278657627,0.3218,-0.9419,0.0347,7.32,14.45,-8.66
147,2278662627,0.3335,-0.9507,0.0361,8.54,15.18,-8.17
148,2278667676,0.3398,-0.9619,0.0381,9.94,15.91,-7.68
149,2278672627,0.3545,-0.9717,0.0400,11.71,16.71,-7.26
150,2278677627,0.3613,-0.9810,0.0415,13.66,17.44,-6.89
151,2278682676,0.3638,-0.9902,0.0435,15.55,18.11,-6.59
152,2278687787,0.3550,-0.9922,0.0498,17.07,18.54,-6.34
153,2278692631,0.3516,-0.9941,0.0518,17.99,19.09,-6.22
154,2278697631,0.3462,-1.0093,0.0449,17.99,19.27,-6.28
155,2278702628,0.3618,-1.0073,0.0508,17.20,19.15,-6.34
156,2278707629,0.3633,-0.9971,0.0576,15.12,18.96,-6.28
157,2278712627,0.3555,-0.9897,0.0601,12.44,18.35,-6.46
158,2278717629,0.3501,-0.9858,0.0669,9.09,17.80,-6.59
159,2278722628,0.3516,-0.9829,0.0791,5.67,17.01,-6.52
160,2278727629,0.3550,-0.9736,0.0659,2.20,16.34,-6.40
161,2278732627,0.3643,-0.9648,0.0620,-0.91,15.43,-5.98
162,2278737629,0.3750,-0.9614,0.0513,-3.41,14.51,-5.43
163,2278742628,0.3726,-0.9570,0.0420,-5.49,13.35,-4.76
164,2278747630,0.3750,-0.9604,0.0425,-6.71,12.20,-4.15
165,2278752779,0.3818,-0.9629,0.0337,-7.56,10.98,-3.41
166,2278757629,0.3906,-0.9663,0.0415,-8.35,9.63,-2.56
167,2278762628,0.3975,-0.9673,0.0571,-9.33,8.48,-1.89
168,2278767629,0.3965,-0.9727,0.0542,-10.30,7.07,-1.16
169,2278772627,0.4048,-0.9873,0.0469,-11.52,6.10,-0.49
170,2278777629,0.4116,-0.9888,0.0513,-12.80,4.82,0.24
171,2278782628,0.4126,-0.9868,0.0518,-13.78,3.60,0.98
172,2278787629,0.4028,-0.9893,0.0439,-14.39,2.50,1.52
173,2278792627,0.3882,-0.9927,0.0439,-14.94,1.46,1.95
174,2278797629,0.3853,-0.9888,0.0332,-15.43,0.43,2.44
175,2278802629,0.3823,-0.9873,0.0181,-15.67,-0.61,2.93
176,2278807629,0.3887,-0.9863,0.0020,-15.79,-1.71,3.05
177,2278812628,0.3765,-0.9868,-0.0151,-15.37,-2.62,3.29
178,2278817629,0.3408,-0.9844,-0.0405,-14.45,-3.29,3.23
179,2278822627,0.2920,-0.9956,-0.0522,-12.80,-4.02,3.17
180,2278827693,0.3540,-0.9902,-0.0591,-10.61,-4.57,2.87
181,2278832629,0.3892,-1.0024,-0.0425,-7.26,-5.00,2.38
182,2278837629,0.4141,-1.0361,-0.0269,-2.20,-5.43,1.95
183,2278842628,0.4233,-1.0552,-0.0293,3.90,-5.67,1.52
184,2278847629,0.4580,-1.0693,-0.0400,10.37,-5.98,1.04
185,2278852628,0.4409,-1.0859,-0.0435,16.77,-6.22,0.67
186,2278857683,0.4448,-1.1157,-0.0488,23.11,-6.34,0.06
187,2278862628,0.4697,-1.1367,-0.0596,27.74,-5.98,-0.55
188,2278867629,0.3369,-1.1558,-0.1479,30.85,-5.43,-1.28
189,2278872627,0.3149,-1.1113,-0.1807,30.91,-5.30,-1.89
190,2278877629,0.4082,-1.0830,-0.0620,30.67,-4.45,-2.62
191,2278882628,0.4653,-1.0991,-0.0229,30.55,-3.78,-3.35
192,2278887629,0.4644,-1.1240,-0.0225,30.12,-3.41,-4.09
193,2278892629,0.4937,-1.1465,0.0454,29.88,-2.93,-4.76
194,2278897627,0.2080,-1.2207,-0.0439,28.78,-1.95,-5.79
195,2278902627,0.2520,-1.1377,-0.0972,24.88,-1.71,-6.89
196,2278907627,0.3672,-1.0869,0.0361,20.73,-0.79,-8.72
197,2278912627,0.4058,-1.1064,0.0640,16.71,0.30,-10.67
198,2278917627,0.3276,-1.1353,-0.0322,13.17,0.98,-12.93
199,2278922627,0.2793,-1.1494,-0.0327,10.30,1.40,-15.06
200,2278927627,0.2407,-1.1523,0.0327,8.48,2.32,-17.50
201,2278932627,0.2681,-1.1333,0.0215,7.20,2.99,-20.00
202,2278937627,0.3018,-1.1284,-0.0264,6.71,3.23,-22.62
203,2278942627,0.2959,-1.1333,0.0039,7.13,3.60,-24.88
204,2278947631,0.2930,-1.1240,0.0420,8.05,4.39,-27.20
205,2278952629,0.2817,-1.1245,0.0181,9.45,5.00,-29.39
206,2278957629,0.2925,-1.1128,0.0054,11.40,5.55,-31.46
207,2278962628,0.3203,-1.1050,0.0273,13.90,6.04,-33.41
208,2278967629,0.3354,-1.0972,0.0449,16.71,6.89,-35.24
209,2278972628,0.3354,-1.1025,0.0200,19.63,7.50,-36.83
210,2278977629,0.3325,-1.1006,0.0225,22.01,7.68,-38.11
211,2278982628,0.3374,-1.0903,0.0522,23.84,8.29,-39.33
212,2278987629,0.3521,-1.0771,0.0581,24.88,8.78,-40.67
213,2278992628,0.3618,-1.0713,0.0566,24.76,9.09,-41.83
214,2278997629,0.3652,-1.0601,0.0679,23.96,9.39,-42.99
215,2279002721,0.3696,-1.0449,0.0923,22.62,9.70,-43.96
216,2279007629,0.3711,-1.0317,0.0947,21.34,10.00,-45.12
217,2279012630,0.3755,-1.0220,0.0815,20.06,10.12,-46.22
218,2279017629,0.3730,-1.0083,0.0923,18.96,10.37,-47.20
219,2279022628,0.3774,-0.9971,0.1045,18.11,10.43,-47.99
220,2279027629,0.3887,-0.9883,0.1084,17.38,10.67,-48.78
221,2279032628,0.4023,-0.9805,0.1069,16.52,10.55,-49.39
222,2279037629,0.4053,-0.9717,0.1279,16.10,10.85,-49.88
223,2279042628,0.4189,-0.9614,0.1362,15.98,10.91,-50.30
224,2279047629,0.4272,-0.9673,0.1357,16.52,10.79,-50.61
225,2279052628,0.4380,-0.9604,0.1338,17.44,10.49,-50.79
226,2279057629,0.4512,-0.9590,0.1411,19.02,10.24,-50.91
227,2279062701,0.4556,-0.9561,0.1421,20.85,9.94,-51.10
228,2279067629,0.4604,-0.9614,0.1484,22.87,9.51,-51.34
229,2279072627,0.4658,-0.9580,0.1538,25.06,8.96,-51.34
230,2279077629,0.4751,-0.9624,0.1528,26.83,8.48,-51.40
231,2279082773,0.4800,-0.9585,0.1528,28.66,7.74,-51.46
232,2279087630,0.4922,-0.9585,0.1562,29.63,7.20,-51.46
233,2279092628,0.5024,-0.9629,0.1558,29.39,6.65,-51.46
234,2279097629,0.5127,-0.9663,0.1758,27.62,6.04,-51.71
235,2279103077,0.5117,-0.9712,0.1772,24.88,5.61,-52.07
236,2279107629,0.5005,-0.9790,0.1821,21.04,5.43,-52.68
237,2279112628,0.4995,-0.9912,0.1885,16.83,5.06,-53.41
238,2279117629,0.5112,-0.9927,0.1929,12.32,4.82,-54.21
239,2279122628,0.5239,-1.0020,0.1899,8.54,4.57,-55.24
240,2279127630,0.5239,-1.0181,0.2031,5.55,4.15,-56.28
241,2279132627,0.5474,-1.0366,0.2148,3.54,3.96,-57.32
242,2279137628,0.5640,-1.0508,0.2168,2.93,3.66,-58.48
243,2279142629,0.5679,-1.0664,0.2285,3.72,3.29,-59.94
244,2279147627,0.5654,-1.0879,0.2310,5.98,2.93,-61.46
245,2279152628,0.5635,-1.1040,0.2354,9.63,2.56,-63.35
246,2279157629,0.5527,-1.1172,0.2402,14.21,2.07,-65.49
247,2279162628,0.5420,-1.1279,0.2437,19.33,1.52,-67.93
248,2279167627,0.5444,-1.1372,0.2368,24.51,1.04,-70.55
249,2279172629,0.5542,-1.1382,0.2422,29.33,0.55,-73.23
250,2279177627,0.5605,-1.1382,0.2441,33.54,0.06,-76.10
251,2279182628,0.5688,-1.1357,0.2495,37.07,-0.18,-79.02
252,2279187629,0.5767,-1.1353,0.2476,39.45,-0.55,-81.89
253,2279192628,0.5923,-1.1367,0.2578,41.04,-0.73,-85.00
254,2279197631,0.5947,-1.1353,0.2632,42.07,-0.91,-87.99
255,2279202630,0.5942,-1.1406,0.2729,42.68,-1.04,-91.16
256,2279207629,0.5938,-1.1416,0.2793,43.48,-1.22,-94.45
257,2279212628,0.5850,-1.1475,0.2822,44.63,-1.40,-97.80
258,2279217629,0.5830,-1.1509,0.2847,46.22,-1.77,-101.22
259,2279222628,0.5825,-1.1499,0.2876,47.93,-2.20,-104.63
260,2279227629,0.5688,-1.1401,0.2935,49.88,-2.74,-108.23
261,2279232627,0.5605,-1.1216,0.2988,51.59,-3.41,-111.95
262,2279237628,0.5581,-1.0972,0.2969,53.17,-4.15,-115.61
263,2279242629,0.5527,-1.0728,0.2993,54.63,-5.00,-119.39
264,2279247627,0.5469,-1.0435,0.2998,56.10,-5.79,-123.11
265,2279252628,0.5391,-1.0073,0.2969,57.56,-6.40,-126.65
266,2279257629,0.5386,-0.9766,0.2954,58.96,-7.20,-130.00
267,2279262628,0.5518,-0.9385,0.2891,60.61,-8.23,-133.05
268,2279267629,0.5586,-0.9004,0.2832,61.95,-9.09,-135.85
269,2279272628,0.5649,-0.8706,0.2769,62.74,-9.82,-138.23
270,2279277629,0.5708,-0.8369,0.2749,62.44,-10.61,-140.24
271,2279282628,0.5889,-0.8003,0.2695,61.22,-11.40,-141.77
272,2279287630,0.6025,-0.7666,0.2681,58.96,-12.01,-143.05
273,2279292628,0.5981,-0.7378,0.2603,55.79,-12.56,-143.84
274,2279297629,0.5981,-0.6992,0.2544,52.26,-13.17,-144.27
275,2279302628,0.6147,-0.6655,0.2500,48.48,-13.41,-144.33
276,2279307630,0.6162,-0.6260,0.2490,44.82,-13.90,-144.09
277,2279312628,0.6094,-0.5864,0.2446,41.52,-14.09,-143.66
278,2279317629,0.6113,-0.5405,0.2261,38.90,-14.39,-142.93
279,2279322628,0.6147,-0.5088,0.2202,36.65,-14.82,-141.95
280,2279327629,0.6187,-0.4810,0.2183,34.33,-15.12,-140.73
281,2279332628,0.6260,-0.4526,0.2212,31.71,-15.30,-139.21
282,2279337629,0.6318,-0.4155,0.2280,28.35,-15.43,-137.62
283,2279342628,0.6362,-0.3892,0.2363,24.70,-15.49,-135.61
284,2279347629,0.6411,-0.3667,0.2334,20.79,-15.18,-133.48
285,2279352628,0.6484,-0.3394,0.2324,17.26,-15.18,-131.10
286,2279357629,0.6543,-0.3086,0.2197,13.96,-14.94,-128.35
287,2279362628,0.6465,-0.2876,0.2212,10.91,-14.51,-125.43
288,2279367800,0.6304,-0.2583,0.2231,8.54,-13.96,-122.44
289,2279372628,0.6240,-0.2290,0.2134,6.77,-13.54,-119.21
290,2279377629,0.6108,-0.2002,0.2129,5.91,-12.99,-115.79
291,2279382628,0.6045,-0.1748,0.2041,6.10,-12.56,-112.26
292,2279387629,0.6104,-0.1494,0.1997,7.13,-11.95,-108.41
293,2279392628,0.6001,-0.1226,0.1953,9.09,-11.65,-104.57
294,2279397629,0.5869,-0.1079,0.1880,11.83,-11.22,-100.61
295,2279402628,0.5718,-0.0879,0.1758,15.00,-11.10,-96.65
296,2279407629,0.5654,-0.0688,0.1807,18.29,-10.98,-92.38
297,2279412630,0.5488,-0.0435,0.1753,21.65,-11.04,-88.29
298,2279417629,0.5400,-0.0200,0.1689,24.76,-11.16,-84.15
299,2279422628,0.5303,0.0122,0.1646,27.44,-11.28,-80.06
300,2279427629,0.5249,0.0303,0.1602,29.45,-11.52,-75.67
301,2279432630,0.5146,0.0508,0.1528,30.43,-11.89,-71.16
302,2279437629,0.5132,0.0771,0.1582,30.43,-11.95,-66.89
303,2279442628,0.5010,0.1001,0.1558,29.45,-12.07,-62.26
304,2279447629,0.4878,0.1255,0.1602,27.56,-12.01,-57.44
305,2279452628,0.4824,0.1587,0.1553,25.37,-12.20,-52.56
306,2279457630,0.4790,0.1826,0.1533,22.99,-11.89,-47.44
307,2279462628,0.4790,0.2095,0.1455,20.98,-11.95,-41.95
308,2279467629,0.4790,0.2397,0.1431,19.27,-11.65,-36.16
309,2279472628,0.4658,0.2671,0.1440,17.87,-11.52,-30.00
310,2279477629,0.4644,0.2866,0.1416,17.07,-11.34,-23.54
311,2279482628,0.4600,0.3086,0.1431,17.01,-11.10,-16.65
312,2279487629,0.4551,0.3320,0.1328,17.50,-10.85,-9.39
313,2279492628,0.4458,0.3491,0.1245,18.60,-10.85,-1.95
314,2279497629,0.4380,0.3628,0.1284,20.00,-10.79,5.73
315,2279502628,0.4355,0.3774,0.1279,21.28,-10.67,13.72
316,2279507629,0.4429,0.3887,0.1226,22.38,-10.73,22.07
317,2279512629,0.4360,0.4019,0.1055,23.23,-10.67,30.67
318,2279517628,0.4316,0.4131,0.1030,23.90,-10.61,39.39
319,2279522629,0.4390,0.4185,0.1060,24.09,-10.61,48.29
320,2279527627,0.4536,0.4248,0.1069,24.02,-10.30,57.44
321,2279532628,0.4575,0.4326,0.1094,23.72,-9.88,66.95
322,2279537629,0.4521,0.4448,0.0967,23.72,-9.33,76.65
323,2279542627,0.4517,0.4531,0.0840,24.39,-8.72,86.40
324,2279547629,0.4585,0.4395,0.0825,25.49,-7.93,96.65
325,2279552628,0.5000,0.4141,0.0859,26.71,-7.13,107.44
326,2279557629,0.5288,0.4092,0.0942,27.01,-6.34,118.48
327,2279562628,0.5327,0.4023,0.1069,26.10,-5.55,129.63
328,2279567629,0.5200,0.3721,0.1230,24.09,-4.88,140.61
329,2279572805,0.5220,0.3276,0.1455,21.22,-4.02,151.83
330,2279577629,0.5488,0.2695,0.1572,18.11,-3.48,162.80
331,2279582628,0.5566,0.2207,0.1699,15.43,-3.05,173.84
332,2279587629,0.5312,0.1626,0.1787,13.54,-2.93,184.27
333,2279592628,0.5112,0.1104,0.1797,12.32,-3.11,194.15
334,2279597629,0.5020,0.0508,0.1929,11.46,-3.60,203.35
335,2279602628,0.4849,-0.0103,0.2109,10.49,-4.09,212.07
336,2279607629,0.4707,-0.0708,0.2231,9.15,-4.70,220.00
337,2279612630,0.4722,-0.1504,0.2192,7.32,-5.55,227.38
338,2279617629,0.4971,-0.2314,0.2153,4.76,-6.89,234.27
339,2279622792,0.5112,-0.2939,0.2085,0.85,-8.41,240.61
340,2279627629,0.5024,-0.3691,0.2148,-4.82,-10.24,246.04
341,2279632628,0.4946,-0.4492,0.2178,-11.95,-12.38,250.85
342,2279637629,0.5010,-0.5420,0.2319,-21.16,-14.76,254.76
343,2279642627,0.5532,-0.6680,0.2681,-31.83,-17.26,257.80
344,2279647630,0.6050,-0.7744,0.2993,-43.72,-19.94,259.88
345,2279652629,0.5933,-0.8755,0.3232,-55.61,-23.05,260.12
346,2279657627,0.9263,-4.9189,0.1543,-68.17,-26.34,254.33
347,2279662627,1.2012,-6.5830,-1.0947,-112.38,-20.06,107.74
348,2279667628,1.4229,-7.2168,-0.3687,-136.28,-18.29,53.84
349,2279672629,1.1470,-6.2969,0.4966,-150.91,-12.20,28.96
350,2279677627,1.0596,-3.7798,0.0415,-156.52,-8.60,11.95
351,2279682628,0.9771,-1.1265,-0.4336,-147.87,-10.18,-2.50
352,2279687629,0.9111,0.4341,0.1245,-127.38,-10.12,-14.33
353,2279692628,0.8911,0.2583,0.4458,-100.55,-6.46,-22.38
354,2279697629,0.8579,-0.9697,0.0278,-69.94,-5.55,-25.55
355,2279702628,0.8716,-2.2056,-0.0078,-38.60,-6.34,-26.16
356,2279707629,0.8765,-2.6465,0.4629,-7.32,-4.27,-26.77
357,2279712627,0.8872,-2.2261,0.4209,20.24,-1.40,-28.90
358,2279717629,0.8901,-1.4067,0.0029,41.46,-0.91,-33.29
359,2279722628,0.8594,-0.7778,0.0654,56.46,-0.55,-39.27
360,2279727629,0.8149,-0.6641,0.3555,65.55,2.38,-45.43
361,2279732629,0.7900,-0.9819,0.2227,69.27,5.18,-51.34
362,2279737627,0.8003,-1.4019,-0.0103,68.72,6.16,-56.46
363,2279742628,0.8096,-1.6318,0.1299,65.12,7.74,-61.59
364,2279747699,0.7930,-1.5688,0.2622,59.51,10.43,-67.20
365,2279752628,0.7642,-1.3120,0.1118,52.93,12.20,-73.17
366,2279757629,0.7510,-1.0430,0.0298,46.28,13.29,-79.82
367,2279762628,0.7158,-0.9121,0.1685,40.98,14.76,-86.28
368,2279767629,0.6743,-0.9507,0.2021,37.62,16.65,-92.50
369,2279772628,0.6567,-1.0669,0.0840,36.10,17.62,-97.99
370,2279777629,0.6499,-1.1436,0.0806,36.22,17.99,-102.93
371,2279782628,0.6499,-1.1265,0.1919,37.87,19.02,-107.62
372,2279787629,0.6357,-1.0195,0.1836,40.79,20.12,-111.65
373,2279792628,0.6240,-0.8813,0.1133,44.88,20.55,-115.43
374,2279797629,0.6230,-0.7749,0.1436,50.18,20.91,-118.60
375,2279802628,0.6226,-0.7217,0.1997,56.59,21.65,-121.28
376,2279807629,0.6167,-0.7212,0.1753,63.66,22.13,-123.29
377,2279812631,0.5996,-0.7148,0.1348,70.91,22.20,-124.45
378,2279817629,0.5801,-0.6641,0.1587,78.11,22.13,-125.24
379,2279822628,0.5659,-0.5684,0.1567,84.21,22.01,-125.61
380,2279827629,0.5625,-0.4570,0.1060,88.17,21.34,-125.43
381,2279832746,0.5806,-0.3442,0.0977,89.21,20.55,-124.51
382,2279837629,0.5840,-0.2539,0.1431,86.34,20.18,-123.11
383,2279842628,0.5815,-0.1929,0.1743,79.39,19.88,-120.91
384,2279847629,0.5815,-0.1445,0.1675,68.72,19.88,-117.93
385,2279852843,0.5845,-0.0801,0.1851,55.91,20.12,-114.27
386,2279857629,0.5791,-0.0010,0.2139,42.13,20.67,-109.51
387,2279862628,0.5718,0.0815,0.2061,29.15,21.52,-104.27
388,2279867629,0.5586,0.1699,0.1929,18.05,22.20,-98.11
389,2279872628,0.5386,0.2476,0.1919,9.63,22.93,-90.98
390,2279877629,0.5161,0.3125,0.1929,4.39,23.41,-83.05
391,2279882628,0.4927,0.3687,0.1665,2.38,24.02,-74.21
392,2279887629,0.4609,0.4214,0.1426,2.99,23.90,-64.33
393,2279892628,0.4409,0.4858,0.1528,5.43,23.96,-53.72
394,2279897629,0.4106,0.5601,0.1479,8.84,24.02,-42.26
395,2279902629,0.3906,0.6260,0.1284,12.20,23.48,-30.06
396,2279907629,0.3984,0.6860,0.1309,14.70,22.93,-16.95
397,2279912629,0.3999,0.7378,0.1440,15.61,22.32,-2.99
398,2279917627,0.4038,0.7778,0.1465,14.88,21.83,11.71
399,2279922629,0.4028,0.8076,0.1450,12.74,21.34,27.20
400,2279927628,0.4048,0.8311,0.1431,9.94,20.67,43.35
401,2279932826,0.3979,0.8423,0.1538,7.13,20.24,60.30
402,2279937629,0.3892,0.8550,0.1592,5.00,19.82,77.50
403,2279942629,0.3804,0.8638,0.1562,4.15,19.27,95.06
404,2279947629,0.3682,0.8477,0.1567,5.06,18.60,113.17
405,2279952627,0.3477,0.8154,0.1611,7.80,17.99,131.28
406,2279957629,0.3423,0.7617,0.1714,11.40,17.38,149.76
407,2279962629,0.3535,0.6987,0.1768,15.37,16.52,168.05
408,2279967629,0.3853,0.6074,0.1875,18.35,15.98,186.34
409,2279972628,0.4053,0.5273,0.2070,18.72,15.43,204.09
410,2279977629,0.3589,0.4482,0.2280,15.37,14.94,220.67
411,2279982629,0.3164,0.3486,0.2490,7.87,14.27,236.04
412,2279987629,0.3115,0.2437,0.2642,-3.29,13.35,250.06
413,2279992628,0.3047,0.1357,0.2715,-17.20,12.26,262.68
414,2279997629,0.2769,0.0171,0.2847,-33.35,10.79,273.78
415,2280002629,0.2554,-0.1035,0.2993,-50.49,8.72,283.48
416,2280007629,0.2373,-0.2246,0.3164,-68.05,6.46,291.71
417,2280012630,0.6924,-4.4395,0.4253,-85.67,3.35,295.49
418,2280017629,1.2461,-12.7588,0.0439,-97.80,12.07,107.38
419,2280022629,1.2280,-4.1157,-0.2495,-97.87,9.02,-1.34
420,2280027629,1.1919,-1.2412,0.4292,-78.90,3.84,-20.30
421,2280032629,0.8564,-0.4146,1.0532,-65.00,4.33,-20.06
422,2280037628,0.8018,-0.2515,0.3418,-68.11,4.76,-13.90
423,2280042629,0.7793,-0.2749,-0.1455,-76.65,1.71,-6.52
424,2280047628,0.7837,-0.5142,0.4434,-85.43,2.62,0.73
425,2280052629,0.7510,-0.7324,0.6719,-91.59,6.16,8.11
426,2280057627,0.7700,-0.8828,0.1357,-90.61,5.79,14.15
427,2280062627,0.7603,-0.8774,0.1074,-80.30,2.87,17.68
428,2280067627,0.6895,-0.7539,0.6011,-65.43,2.87,19.76
429,2280072634,0.6514,-0.6855,0.5034,-51.71,3.96,21.40
430,2280077630,0.6616,-0.7412,0.0474,-42.38,2.87,22.44
431,2280082628,0.6445,-0.8770,0.1519,-36.10,2.20,22.74
432,2280087627,0.6143,-1.0063,0.4526,-30.55,3.96,22.01
433,2280092632,0.6152,-1.0654,0.2656,-25.30,5.24,20.18
434,2280097629,0.6245,-1.0366,0.0435,-20.85,4.88,17.56
435,2280102629,0.6309,-0.9492,0.2476,-16.59,5.37,14.70
436,2280107628,0.6406,-0.8687,0.3813,-13.11,7.32,11.83
437,2280112629,0.6426,-0.8237,0.1821,-11.71,8.66,9.45
438,2280117629,0.6445,-0.7949,0.0845,-12.56,9.27,7.87
439,2280122629,0.6460,-0.7773,0.2480,-15.55,11.10,6.65
440,2280127627,0.6333,-0.7485,0.2500,-20.06,13.66,5.85
441,2280132629,0.6152,-0.7061,0.0659,-26.28,15.12,5.24
442,2280137630,0.5972,-0.6592,0.0596,-33.35,16.65,4.82
443,2280142627,0.5742,-0.6250,0.1685,-41.10,18.84,4.51
444,2280147627,0.5679,-0.6177,0.1196,-49.39,21.28,4.45
445,2280152627,0.5728,-0.6206,0.0195,-57.93,22.99,4.57
446,2280157627,0.5747,-0.6255,0.0718,-65.98,25.00,5.12
447,2280162629,0.5845,-0.6294,0.1372,-72.99,27.50,5.79
448,2280167630,0.5757,-0.6235,0.0713,-78.60,29.88,6.71
449,2280172627,0.5879,-0.6079,0.0171,-82.32,31.46,8.05
450,2280177627,0.5933,-0.5947,0.0723,-83.90,33.41,9.51
451,2280182630,0.6045,-0.5903,0.0889,-83.54,35.49,11.04
452,2280187628,0.6035,-0.5942,0.0317,-81.71,37.01,12.87
453,2280192628,0.5942,-0.6006,0.0259,-78.60,38.11,14.82
454,2280197632,0.5776,-0.6016,0.0786,-74.76,39.45,16.89
455,2280202629,0.5747,-0.5957,0.0767,-70.55,40.73,18.96
456,2280207630,0.5757,-0.5825,0.0356,-66.46,41.71,20.98
457,2280212627,0.5806,-0.5713,0.0522,-62.56,42.44,23.11
458,2280217629,0.5762,-0.5615,0.0874,-59.33,43.29,25.00
459,2280222630,0.5728,-0.5581,0.0654,-56.77,44.21,27.01
460,2280227627,0.5605,-0.5571,0.0503,-55.12,44.76,29.15
461,2280232629,0.5405,-0.5830,0.0801,-54.09,45.12,31.16
462,2280237630,0.5210,-0.6733,0.1631,-50.91,45.24,32.87
463,2280242627,0.5093,-0.7427,0.2378,-40.37,44.09,33.72
464,2280247630,0.5186,-0.6846,0.2471,-26.89,42.20,34.33
465,2280252629,0.5205,-0.6455,0.2407,-20.91,40.85,35.43
466,2280257629,0.4873,-0.6758,0.2749,-19.88,39.88,36.83
467,2280262627,0.4380,-0.7490,0.3979,-15.37,38.05,37.80
468,2280267629,0.4438,-0.7495,0.4375,-5.61,34.82,38.17
469,2280272629,0.4819,-0.6978,0.3838,-1.34,31.95,38.05
470,2280277628,0.4951,-0.6812,0.3521,-4.76,30.00,37.87
471,2280282629,0.4912,-0.6860,0.3311,-12.26,27.99,37.68
472,2280287628,0.4829,-0.6846,0.3149,-22.68,26.40,37.87
473,2280292627,0.4678,-0.6846,0.2949,-34.82,24.63,37.87
474,2280297629,0.4604,-0.6680,0.2490,-48.48,22.80,37.93
475,2280302628,0.4595,-0.6475,0.2256,-63.90,20.85,38.05
476,2280307629,0.4570,-0.6348,0.2056,-80.30,19.09,38.48
477,2280312627,0.4517,-0.6416,0.1997,-96.28,17.38,39.02
478,2280317629,0.4507,-0.6362,0.1836,-110.98,15.37,39.63
479,2280322629,0.4585,-0.6265,0.1587,-124.76,13.11,40.37
480,2280327628,0.4683,-0.6323,0.1523,-138.54,10.61,41.28
481,2280332629,0.4731,-0.6431,0.1323,-152.26,8.23,42.38
482,2280337627,0.4771,-0.6519,0.1392,-166.46,5.85,43.66
483,2280342627,0.4795,-0.6582,0.1538,-180.00,3.60,45.06
484,2280347629,0.4771,-0.6582,0.1621,-192.50,1.59,46.16
485,2280352629,0.4404,-0.6689,0.1631,-203.05,-0.12,47.13
486,2280357629,0.3799,-0.6816,0.1616,-210.85,-2.13,48.11
487,2280362627,0.3325,-0.7012,0.1494,-215.67,-3.90,48.90
488,2280367627,0.3159,-0.7031,0.1338,-217.07,-6.22,49.57
489,2280373131,0.3237,-0.7158,0.1021,-215.18,-8.29,50.37
490,2280377629,0.3330,-0.7437,0.0708,-210.43,-10.91,51.16
491,2280382628,0.3564,-0.7314,0.0659,-203.60,-13.66,51.95
492,2280387629,0.3774,-0.7227,0.0439,-194.88,-16.34,52.56
493,2280392627,0.4336,-0.6416,0.0562,-186.04,-18.84,52.74
494,2280397629,0.4155,-0.7363,0.0303,-179.02,-21.22,52.93
495,2280402628,0.3867,-0.7939,-0.0405,-172.93,-24.09,53.96
496,2280407629,0.3550,-0.8057,-0.0972,-167.44,-27.32,55.12
497,2280412627,0.3032,-0.8257,-0.0977,-162.68,-30.18,56.10
498,2280417629,0.2695,-0.8267,-0.0737,-158.78,-32.62,56.77
499,2280422628,0.2725,-0.8394,-0.0615,-155.67,-34.45,57.13
500,2280427629,0.2695,-0.8179,-0.0615,-152.80,-36.10,57.20
501,2280432627,0.2910,-0.8296,-0.0615,-150.18,-37.50,56.95
502,2280437631,0.2930,-0.8271,-0.0732,-147.20,-38.66,56.59
503,2280442627,0.2695,-0.8320,-0.0952,-143.66,-39.76,56.16
504,2280447631,0.2373,-0.8350,-0.1284,-138.84,-40.91,55.55
505,2280452629,0.2329,-0.8374,-0.1445,-132.93,-42.32,54.70
506,2280457629,0.2471,-0.8394,-0.1733,-126.22,-43.72,53.90
507,2280462629,0.2661,-0.8433,-0.2065,-119.33,-45.30,52.99
508,2280467631,0.2910,-0.8467,-0.2163,-112.93,-46.65,51.95
509,2280472627,0.3306,-0.8398,-0.2129,-107.38,-47.93,50.79
510,2280477628,0.3784,-0.8394,-0.2080,-102.93,-48.35,49.63
511,2280482629,0.4087,-0.8403,-0.2139,-99.27,-48.48,48.29
512,2280487627,0.4282,-0.8608,-0.2515,-96.28,-48.23,47.01
513,2280492628,0.4351,-0.8989,-0.2935,-93.72,-47.68,46.16
514,2280497629,0.4756,-0.8965,-0.3462,-92.20,-47.26,45.18
515,2280502628,0.4619,-0.9336,-0.3955,-91.65,-47.07,44.21
516,2280507764,0.4712,-0.9541,-0.4253,-92.01,-46.83,43.72
517,2280512629,0.4819,-0.9590,-0.4360,-92.99,-46.28,43.60
518,2280517627,0.5200,-0.9600,-0.4526,-95.06,-45.98,43.60
519,2280522629,0.5176,-0.9751,-0.4878,-98.48,-45.61,43.48
520,2280527629,0.4922,-0.9678,-0.4941,-102.68,-45.49,43.29
521,2280532629,0.4736,-0.9453,-0.4570,-107.26,-45.12,42.80
522,2280537677,0.4736,-0.9624,-0.3486,-112.68,-43.96,41.89
523,2280542629,0.3716,-0.9927,-0.3599,-118.23,-42.38,41.22
524,2280547629,0.5127,-0.9146,-0.4771,-123.84,-41.46,40.24
525,2280552628,0.5078,-0.8491,-0.5054,-130.00,-41.52,38.84
526,2280557629,0.3970,-0.8765,-0.6099,-136.40,-42.01,37.01
527,2280562629,0.3213,-0.9233,-0.7344,-143.78,-43.35,35.37
528,2280567631,0.2568,-0.9771,-0.6812,-151.89,-44.39,33.84
529,2280572629,0.2500,-1.0664,-0.8818,-159.57,-43.48,32.01
530,2280577629,0.8887,-1.3467,-2.0537,-134.39,-37.80,29.63
531,2280582629,0.9771,-1.1870,-2.3872,-43.60,-21.83,27.93
532,2280587630,0.2925,-0.9385,-1.4302,24.45,-4.88,24.51
533,2280592643,0.2080,-0.9316,-0.8716,38.23,4.15,21.16
534,2280597629,0.3408,-0.9648,-0.7520,27.07,7.80,19.45
535,2280602629,0.5127,-0.9624,-0.6777,13.17,9.15,18.41
536,2280607628,0.5957,-0.8921,-0.5449,4.09,10.37,16.28
537,2280612629,0.5962,-0.8184,-0.5142,-1.89,9.76,12.62
538,2280617629,0.5566,-0.7827,-0.5854,-8.35,8.84,9.15
539,2280622629,0.4849,-0.7759,-0.6035,-16.46,8.05,6.40
540,2280627628,0.4429,-0.8159,-0.5718,-26.52,7.50,4.82
541,2280632629,0.4653,-0.8242,-0.5649,-38.17,7.44,3.60
542,2280637629,0.4668,-0.7339,-0.5869,-50.61,7.26,1.95
543,2280642629,0.4688,-0.6714,-0.6216,-64.45,7.56,-0.06
544,2280647630,0.4678,-0.6450,-0.5977,-80.12,8.54,-2.13
545,2280652629,0.4482,-0.6323,-0.5786,-97.26,10.06,-3.96
546,2280657629,0.4546,-0.6030,-0.5425,-114.57,12.07,-5.24
547,2280662629,0.5928,-0.5913,-0.6035,-130.61,13.66,-6.52
548,2280667627,0.6367,-0.8159,-0.6548,-146.28,15.43,-7.50
549,2280672629,0.6138,-0.6978,-0.3652,-161.40,18.84,-8.41
550,2280677628,0.5063,-0.4336,-0.5967,-171.46,22.68,-10.73
551,2280682629,0.6143,-0.5674,-1.2881,-172.20,24.33,-12.13
552,2280687628,0.9248,-0.8530,-1.3145,-142.38,31.16,-12.68
553,2280692629,0.7295,-0.9722,-0.9404,-90.12,43.72,-12.87
554,2280697629,0.2842,-1.0371,-0.9653,-55.12,52.07,-13.60
555,2280702629,0.1050,-0.9141,-0.8887,-49.21,53.84,-14.76
556,2280707628,0.0806,-0.6841,-0.3950,-50.37,55.67,-15.43
557,2280712629,0.2031,-0.5625,-0.3730,-52.56,57.50,-14.63
558,2280717629,0.3550,-0.5229,-0.7388,-54.76,56.10,-12.93
559,2280722629,0.4102,-0.5439,-0.7910,-57.38,53.60,-10.73
560,2280727628,0.4609,-0.6426,-0.5703,-60.55,51.83,-8.41
561,2280732629,0.4556,-0.7290,-0.6714,-63.35,49.76,-5.91
562,2280737629,0.6025,-0.7212,-0.8921,-64.88,46.77,-4.33
563,2280742629,0.7100,-0.6582,-0.8188,-64.39,44.70,-3.78
564,2280747629,0.7524,-0.5425,-0.6836,-61.95,44.88,-4.63
565,2280752796,0.7354,-0.4526,-0.7510,-59.02,45.49,-6.71
566,2280757629,0.6948,-0.4170,-0.8032,-58.05,45.85,-9.39
567,2280762628,0.6138,-0.4971,-0.6533,-60.49,47.01,-11.83
568,2280767629,0.5439,-0.6533,-0.5791,-64.76,49.39,-13.23
569,2280772627,0.4902,-0.7217,-0.6606,-69.70,51.04,-13.96
570,2280777629,0.4595,-0.7300,-0.7256,-74.51,51.95,-14.94
571,2280782628,0.4438,-0.6782,-0.6475,-78.78,52.99,-16.10
572,2280787629,0.4380,-0.6191,-0.5762,-81.95,54.15,-17.68
573,2280792627,0.4478,-0.5903,-0.6406,-84.27,55.00,-19.15
574,2280797629,0.4468,-0.6025,-0.6909,-85.67,54.82,-20.37
575,2280802628,0.4429,-0.6157,-0.6719,-86.59,54.63,-21.04
576,2280807629,0.4404,-0.6343,-0.6714,-86.04,54.15,-21.34
577,2280812627,0.4492,-0.6392,-0.7178,-84.39,53.11,-21.16
578,2280817629,0.4639,-0.6284,-0.7285,-81.52,51.83,-20.55
579,2280822628,0.4878,-0.6045,-0.6948,-77.74,50.49,-19.57
580,2280827629,0.5186,-0.5718,-0.6899,-73.29,48.72,-18.41
581,2280832627,0.5122,-0.5298,-0.7236,-68.84,46.40,-16.95
582,2280837629,0.4771,-0.4927,-0.7070,-63.72,43.84,-15.49
583,2280842629,0.4937,-0.4517,-0.6489,-57.99,41.59,-14.39
584,2280847628,0.5293,-0.4541,-0.6426,-51.95,39.15,-13.60
585,2280852715,0.5806,-0.4702,-0.6812,-46.16,36.71,-12.44
586,2280858057,0.6040,-0.4585,-0.6729,-41.10,34.33,-11.40
587,2280862631,0.5820,-0.4331,-0.6562,-37.07,32.44,-10.49
588,2280867628,0.5391,-0.4204,-0.6514,-34.27,30.79,-9.82
589,2280872627,0.4937,-0.4229,-0.6606,-32.38,29.57,-9.39
590,2280877629,0.4658,-0.4336,-0.6475,-31.34,28.66,-9.15
591,2280882628,0.4580,-0.4316,-0.6406,-30.67,28.35,-9.02
592,2280887629,0.4634,-0.4297,-0.6602,-29.94,28.11,-9.02
593,2280892627,0.4751,-0.4360,-0.6899,-29.39,28.11,-9.15
594,2280897629,0.4824,-0.4409,-0.7036,-28.35,27.93,-9.33
595,2280902628,0.5142,-0.4614,-0.7329,-27.32,27.56,-9.15
596,2280907629,0.5425,-0.4849,-0.7524,-25.55,26.83,-8.29
597,2280912627,0.5659,-0.4678,-0.7622,-23.41,25.85,-7.38
598,2280917629,0.5654,-0.4321,-0.7534,-21.04,24.63,-6.34
599,2280922628,0.5498,-0.3989,-0.7422,-18.41,23.48,-5.43
600,2280927629,0.5142,-0.3867,-0.7212,-15.98,22.56,-4.63
601,2280932627,0.4795,-0.3770,-0.7041,-14.15,21.77,-3.66
602,2280937629,0.4590,-0.3594,-0.6768,-12.68,21.34,-2.56
603,2280942628,0.4609,-0.3325,-0.6753,-12.01,20.85,-1.34
604,2280947631,0.4790,-0.3315,-0.6743,-11.83,20.30,-0.24
605,2280952627,0.4985,-0.3179,-0.6792,-12.26,19.70,1.22
606,2280957627,0.4985,-0.3076,-0.7202,-13.35,19.09,2.80
607,2280962629,0.5068,-0.3115,-0.7207,-14.88,18.17,4.51
608,2280967628,0.5068,-0.3296,-0.6821,-15.98,17.13,6.04
609,2280972627,0.5215,-0.3540,-0.6626,-16.34,16.22,7.38
610,2280977629,0.5332,-0.3994,-0.7070,-16.46,15.06,8.72
611,2280982629,0.5381,-0.4272,-0.7002,-16.89,13.90,9.70
612,2280987628,0.5366,-0.4224,-0.6670,-17.20,13.29,10.49
613,2280992629,0.5264,-0.4146,-0.6846,-17.56,12.74,10.98
614,2280997628,0.5195,-0.4185,-0.7056,-18.48,12.13,11.16
615,2281002628,0.5156,-0.4395,-0.6934,-19.70,11.95,11.34
616,2281007629,0.5063,-0.4766,-0.6792,-21.46,12.07,11.28
617,2281012629,0.4932,-0.5122,-0.7056,-23.84,12.38,11.16
618,2281017628,0.4761,-0.5195,-0.7397,-25.98,12.74,11.16
619,2281022629,0.4688,-0.5068,-0.7417,-28.11,13.29,10.85
620,2281027628,0.4609,-0.4771,-0.7388,-29.63,14.45,10.61
621,2281032629,0.4375,-0.4644,-0.7734,-30.49,15.00,10.12
622,2281037629,0.4082,-0.4800,-0.7764,-30.73,16.10,9.76
623,2281042627,0.3906,-0.4922,-0.7466,-30.30,17.13,9.51
624,2281047627,0.3945,-0.5054,-0.7446,-29.51,18.17,9.33
625,2281052629,0.4014,-0.5068,-0.7441,-28.23,19.27,9.09
626,2281057630,0.4058,-0.4990,-0.7266,-26.46,20.37,8.96
627,2281062627,0.3950,-0.4937,-0.6963,-24.33,21.16,8.54
628,2281067629,0.4121,-0.4692,-0.6943,-22.38,21.83,8.11
629,2281072628,0.4307,-0.4741,-0.7119,-21.16,22.44,7.56
630,2281077629,0.4341,-0.4766,-0.7266,-21.10,22.93,7.20
631,2281082628,0.4229,-0.4697,-0.7256,-22.20,23.54,7.13
632,2281087629,0.4062,-0.4644,-0.7310,-24.27,24.15,6.95
633,2281092629,0.3916,-0.4585,-0.7246,-27.32,24.57,6.77
634,2281097630,0.3828,-0.4531,-0.7158,-31.28,25.18,6.83
635,2281102627,0.3848,-0.4438,-0.7041,-35.67,25.55,6.95
636,2281107628,0.3940,-0.4458,-0.7065,-39.94,26.16,7.07
637,2281112627,0.3999,-0.4502,-0.7026,-43.96,26.46,7.26
638,2281117629,0.3989,-0.4487,-0.6997,-47.38,26.77,7.56
639,2281122631,0.3940,-0.4497,-0.7026,-50.30,26.89,7.80
640,2281127628,0.3867,-0.4502,-0.6968,-52.68,26.89,7.99
641,2281132629,0.3799,-0.4385,-0.6904,-54.57,27.07,8.23
642,2281137629,0.3813,-0.4326,-0.6841,-55.79,26.95,8.54
643,2281142627,0.3848,-0.4272,-0.6792,-56.71,26.95,8.90
644,2281147629,0.3818,-0.4160,-0.6895,-57.38,26.89,9.27
645,2281152628,0.3633,-0.4102,-0.6797,-57.99,26.71,9.76
646,2281157627,0.3423,-0.4053,-0.6714,-58.48,26.65,10.12
647,2281162627,0.3403,-0.4038,-0.6553,-59.27,26.77,10.61
648,2281167629,0.3398,-0.3896,-0.6421,-59.88,26.59,11.04
649,2281172760,0.3462,-0.3887,-0.6323,-60.30,26.59,11.71
650,2281177629,0.3350,-0.3770,-0.6279,-60.18,26.28,12.38
651,2281182629,0.3257,-0.3730,-0.6172,-59.51,25.98,13.17
652,2281187630,0.3325,-0.3706,-0.6172,-58.35,25.55,14.15
653,2281192627,0.3315,-0.3672,-0.6240,-57.07,25.06,14.94
654,2281197630,0.3286,-0.3691,-0.6313,-56.10,24.45,15.91
655,2281202629,0.3276,-0.3647,-0.6367,-55.67,23.78,17.01
656,2281207628,0.3281,-0.3569,-0.6470,-56.04,23.17,17.99
657,2281212629,0.3345,-0.3569,-0.6548,-57.38,22.56,19.09
658,2281217627,0.3325,-0.3545,-0.6572,-59.88,22.01,19.94
659,2281222629,0.3311,-0.3574,-0.6621,-63.17,21.22,20.91
660,2281227628,0.3242,-0.3618,-0.6626,-67.13,20.91,21.89
661,2281232668,0.3091,-0.3682,-0.6626,-71.28,20.43,22.80
662,2281237627,0.3037,-0.3564,-0.6641,-75.06,20.00,23.66
663,2281242629,0.3145,-0.3677,-0.6758,-77.74,19.63,24.63
664,2281247628,0.3164,-0.3667,-0.6782,-79.09,19.09,25.67
665,2281252627,0.3149,-0.3682,-0.6768,-79.39,18.60,26.46
666,2281257629,0.3086,-0.3672,-0.6841,-78.66,18.17,27.44
667,2281262629,0.3130,-0.3628,-0.6836,-77.07,17.62,28.29
668,2281267627,0.3125,-0.3623,-0.6865,-75.37,17.13,29.27
669,2281272627,0.3179,-0.3599,-0.6973,-73.84,16.89,30.24
670,2281277629,0.3276,-0.3501,-0.7017,-72.32,16.52,31.34
671,2281282629,0.3408,-0.3486,-0.7075,-71.34,16.22,32.20
672,2281287627,0.3374,-0.3496,-0.7104,-71.22,15.91,33.23
673,2281292628,0.3433,-0.3491,-0.7334,-71.83,15.67,34.39
674,2281297629,0.3633,-0.3442,-0.7373,-73.29,15.49,35.43
675,2281302628,0.3633,-0.3447,-0.7544,-75.49,15.24,36.52
676,2281308137,0.3604,-0.3428,-0.7632,-78.48,15.00,37.38
677,2281312630,0.3584,-0.3433,-0.7783,-82.13,14.82,38.11
678,2281317628,0.3618,-0.3433,-0.7896,-86.10,14.76,38.66
679,2281322629,0.3618,-0.3423,-0.7998,-90.18,14.76,38.96
680,2281327627,0.3545,-0.3423,-0.8188,-94.09,14.82,39.27
681,2281332627,0.3452,-0.3423,-0.8208,-97.13,14.88,39.39
682,2281337628,0.3423,-0.3403,-0.8320,-99.21,14.51,39.70
683,2281342629,0.3496,-0.3369,-0.8403,-100.24,14.63,39.94
684,2281347628,0.3833,-0.3311,-0.8521,-100.30,14.45,40.37
685,2281352629,0.3979,-0.3276,-0.8628,-99.94,14.21,40.61
686,2281357629,0.4014,-0.3262,-0.8662,-99.27,14.02,41.16
687,2281362629,0.3970,-0.3242,-0.8711,-98.90,13.72,41.65
688,2281367627,0.4082,-0.3223,-0.8745,-99.02,13.66,42.38
689,2281372631,0.4258,-0.3184,-0.8813,-99.33,13.54,43.05
690,2281377627,0.4336,-0.3140,-0.8867,-99.82,13.41,43.84
691,2281382629,0.4482,-0.3174,-0.8940,-100.43,13.17,44.70
692,2281387629,0.4561,-0.3130,-0.8916,-101.52,13.29,45.61
693,2281392873,0.4546,-0.3135,-0.8950,-103.05,13.35,46.40
694,2281397629,0.4604,-0.3140,-0.8965,-105.06,13.54,47.13
695,2281402629,0.4702,-0.3193,-0.8984,-107.38,13.78,47.87
696,2281407629,0.4814,-0.3101,-0.9019,-109.82,14.15,48.60
697,2281412628,0.4829,-0.3057,-0.9072,-112.07,14.45,49.39
698,2281417629,0.4946,-0.3105,-0.9165,-114.21,15.00,50.18
699,2281422629,0.5039,-0.3071,-0.9214,-116.10,15.49,51.04
700,2281427629,0.5078,-0.3037,-0.9204,-117.62,15.85,51.89
701,2281432628,0.5215,-0.3032,-0.9258,-118.90,16.16,52.74
702,2281437629,0.5269,-0.2949,-0.9370,-119.51,16.40,53.48
703,2281442627,0.5220,-0.2866,-0.9458,-119.76,16.89,54.02
704,2281447627,0.5298,-0.2866,-0.9492,-120.06,16.89,54.88
705,2281452629,0.5479,-0.2837,-0.9492,-120.79,17.20,55.55
706,2281457629,0.5454,-0.2788,-0.9463,-121.71,17.50,56.10
707,2281462628,0.5396,-0.2764,-0.9648,-122.80,17.80,56.59
708,2281467629,0.5396,-0.2773,-0.9678,-123.96,18.05,56.95
709,2281472629,0.5479,-0.2812,-0.9668,-125.06,18.48,57.44
710,2281477629,0.5586,-0.2749,-0.9634,-126.34,18.84,57.99
711,2281482629,0.5684,-0.2725,-0.9600,-127.32,19.21,58.48
712,2281487629,0.5757,-0.2627,-0.9658,-127.93,19.51,59.09
713,2281492627,0.5913,-0.2593,-0.9663,-128.23,19.94,59.70
714,2281497629,0.6094,-0.2539,-0.9585,-128.54,20.49,60.37
715,2281502629,0.6187,-0.2539,-0.9521,-129.21,20.91,61.10
716,2281507629,0.6245,-0.2495,-0.9482,-130.43,21.28,61.71
717,2281512628,0.6260,-0.2451,-0.9531,-132.26,21.77,62.50
718,2281517653,0.6289,-0.2451,-0.9395,-134.82,22.07,63.29
719,2281522629,0.6299,-0.2393,-0.9287,-137.50,22.50,64.09
720,2281527628,0.6382,-0.2363,-0.9229,-139.94,22.87,65.00
721,2281533072,0.6426,-0.2329,-0.9214,-141.65,23.17,65.91
722,2281537630,0.6494,-0.2310,-0.9165,-142.13,23.23,66.71
723,2281542629,0.6460,-0.2275,-0.9204,-141.65,23.41,67.44
724,2281547629,0.6343,-0.2241,-0.9194,-140.67,23.41,68.17
725,2281552628,0.6396,-0.2212,-0.9121,-139.51,23.54,68.84
726,2281557629,0.6426,-0.2261,-0.9058,-138.72,23.66,69.51
727,2281562903,0.6431,-0.2241,-0.9067,-138.48,23.90,70.00
728,2281567652,0.6387,-0.2310,-0.8955,-138.78,24.27,70.49
729,2281572629,0.6353,-0.2358,-0.8921,-139.63,24.70,70.91
730,2281577630,0.6431,-0.2422,-0.8853,-141.04,25.18,71.28
731,2281582628,0.6445,-0.2505,-0.8882,-142.93,25.61,71.46
732,2281587629,0.6406,-0.2617,-0.8921,-145.24,26.10,71.59
733,2281592629,0.6343,-0.2700,-0.8853,-148.11,26.83,71.40
734,2281597627,0.6431,-0.2788,-0.8843,-151.34,27.62,71.10
735,2281602629,0.6494,-0.2817,-0.8823,-154.39,28.60,70.73
736,2281607629,0.6416,-0.2842,-0.8755,-157.07,29.39,70.06
737,2281612627,0.6343,-0.2812,-0.8657,-159.15,30.37,69.51
738,2281617628,0.6416,-0.2793,-0.8496,-160.12,31.28,68.78
739,2281622629,0.6572,-0.2773,-0.8467,-160.00,32.20,68.23
740,2281627628,0.6719,-0.2642,-0.8306,-158.60,33.05,67.68
741,2281632928,0.6753,-0.2520,-0.8135,-156.22,33.84,67.26
742,2281637630,0.6851,-0.2412,-0.8022,-153.41,34.39,66.89
743,2281642629,0.7046,-0.2290,-0.7949,-150.91,35.00,66.77
744,2281647629,0.7148,-0.2217,-0.7832,-149.09,35.37,66.59
745,2281652628,0.7231,-0.2134,-0.7832,-147.87,35.61,66.71
746,2281657629,0.7305,-0.2085,-0.7656,-147.99,36.04,66.71
747,2281662631,0.7368,-0.2129,-0.7646,-149.45,36.28,66.71
748,2281667629,0.7437,-0.2119,-0.7661,-151.16,36.40,66.65
749,2281672629,0.7407,-0.2134,-0.7637,-153.90,36.71,66.34
750,2281677627,0.7256,-0.2148,-0.7578,-157.26,37.07,65.79
751,2281682628,0.7280,-0.2246,-0.7510,-161.16,37.56,64.88
752,2281687629,0.7251,-0.2275,-0.7466,-164.94,37.99,63.90
753,2281692629,0.7144,-0.2329,-0.7441,-168.17,38.54,62.80
754,2281697628,0.7202,-0.2388,-0.7363,-170.67,39.21,61.71
755,2281702629,0.7163,-0.2349,-0.7090,-172.20,39.70,60.37
756,2281707629,0.7251,-0.2241,-0.6992,-172.44,40.43,59.09
757,2281712627,0.7383,-0.2119,-0.6816,-171.16,41.40,57.56
758,2281717629,0.7461,-0.2051,-0.6763,-169.39,41.71,56.77
759,2281722804,0.7632,-0.1899,-0.6572,-167.01,42.20,55.85
760,2281727629,0.7778,-0.1763,-0.6416,-164.51,42.62,55.12
761,2281732627,0.7891,-0.1685,-0.6396,-162.50,43.05,54.57
762,2281737627,0.8032,-0.1675,-0.6367,-161.10,43.23,54.09
763,2281742627,0.8130,-0.1606,-0.6167,-160.85,43.54,53.78
764,2281747628,0.8179,-0.1641,-0.6113,-161.52,43.78,53.35
765,2281752629,0.8184,-0.1787,-0.6104,-162.93,44.27,52.93
766,2281757628,0.8179,-0.1821,-0.6094,-164.51,44.57,52.44
767,2281762628,0.8232,-0.1855,-0.6021,-165.85,45.12,52.01
768,2281767630,0.8223,-0.1958,-0.5952,-167.01,45.98,51.34
769,2281772629,0.8130,-0.2021,-0.5859,-167.93,46.77,50.67
770,2281777629,0.8086,-0.2026,-0.5693,-168.78,47.62,49.82
771,2281782629,0.8125,-0.2031,-0.5581,-169.02,48.72,48.84
772,2281787628,0.8110,-0.1992,-0.5396,-168.66,49.63,47.87
773,2281792627,0.8101,-0.1885,-0.5254,-167.74,50.85,46.95
774,2281797629,0.8184,-0.1758,-0.5127,-166.10,52.13,45.85
775,2281802629,0.8130,-0.1650,-0.5078,-163.90,52.93,44.76
776,2281807628,0.8154,-0.1572,-0.4956,-161.16,53.84,43.54
777,2281812629,0.8169,-0.1489,-0.4854,-158.90,54.57,42.62
778,2281817627,0.8120,-0.1343,-0.4790,-157.50,55.12,41.46
779,2281822630,0.8062,-0.1357,-0.4736,-157.62,55.79,40.18
780,2281827628,0.8013,-0.1284,-0.4634,-158.96,56.59,38.90
781,2281832629,0.8008,-0.1226,-0.4561,-160.98,57.26,37.50
782,2281837627,0.7905,-0.1226,-0.4453,-163.41,58.05,36.22
783,2281842631,0.7837,-0.1211,-0.4302,-165.67,58.78,35.24
784,2281847628,0.7778,-0.1230,-0.4097,-167.01,59.76,34.02
785,2281852629,0.7803,-0.1172,-0.3955,-167.07,60.61,33.29
786,2281857627,0.7949,-0.1050,-0.3740,-165.55,61.52,32.50
787,2281862629,0.7925,-0.0972,-0.3555,-162.80,62.38,32.01
788,2281867629,0.8003,-0.0918,-0.3384,-159.51,63.41,31.71
789,2281872629,0.8101,-0.0820,-0.3154,-156.28,64.21,31.46
790,2281877629,0.8159,-0.0718,-0.3022,-153.23,65.12,31.46
791,2281882629,0.8130,-0.0605,-0.2837,-150.91,66.04,31.46
792,2281887628,0.8066,-0.0591,-0.2676,-149.27,67.07,31.52
793,2281892629,0.8164,-0.0571,-0.2593,-148.23,68.05,31.59
794,2281897627,0.8149,-0.0527,-0.2520,-147.62,69.15,31.59
795,2281903136,0.7905,-0.0557,-0.2520,-147.50,70.49,31.28
796,2281907629,0.7837,-0.0640,-0.2446,-147.87,71.28,30.79
797,2281912629,0.7822,-0.0679,-0.2437,-148.66,72.50,30.18
798,2281917629,0.7764,-0.0679,-0.2393,-148.90,73.48,29.39
799,2281922630,0.7622,-0.0605,-0.2202,-148.66,74.70,28.48
800,2281927629,0.7500,-0.0605,-0.2119,-148.05,75.79,27.50
801,2281932629,0.7524,-0.0576,-0.1978,-146.83,76.89,26.46
802,2281937629,0.7681,-0.0503,-0.1821,-145.55,78.11,25.61
803,2281942628,0.7739,-0.0415,-0.1709,-144.02,78.96,24.88
804,2281947629,0.7822,-0.0371,-0.1504,-142.44,80.00,24.45
805,2281952994,0.7896,-0.0332,-0.1255,-141.52,80.98,24.27
806,2281957629,0.7891,-0.0327,-0.0977,-140.98,81.95,24.21
807,2281962629,0.7959,-0.0283,-0.0811,-140.91,83.35,24.45
808,2281967629,0.7988,-0.0220,-0.0620,-140.67,83.78,24.51
809,2281972630,0.7920,-0.0190,-0.0439,-139.94,85.55,24.82
810,2281977629,0.7896,-0.0117,-0.0161,-138.84,85.85,24.94
811,2281982629,0.7861,-0.0054,0.0127,-137.38,85.98,25.18
812,2281987629,0.7876,-0.0010,0.0342,-135.12,88.11,25.49
813,2281992628,0.7837,0.0112,0.0513,-132.07,88.84,25.85
814,2281997629,0.7812,0.0225,0.0659,-128.48,89.76,26.40
815,2282002854,0.7852,0.0229,0.0796,-124.82,90.55,26.89
816,2282007629,0.7871,0.0283,0.0835,-121.59,91.22,27.32
817,2282013040,0.7759,0.0376,0.0938,-118.54,91.83,27.62
818,2282017629,0.7681,0.0332,0.0918,-117.07,92.07,27.74
819,2282022628,0.7568,0.0303,0.1040,-116.34,92.38,27.56
820,2282027629,0.7539,0.0244,0.1182,-116.40,92.62,27.32
821,2282032629,0.7686,0.0186,0.1196,-117.20,92.93,26.95
822,2282037629,0.7710,0.0107,0.1235,-118.05,93.23,26.71
823,2282042628,0.7705,0.0054,0.1250,-118.54,93.66,26.22
824,2282047629,0.7632,-0.0088,0.1260,-118.60,94.21,25.67
825,2282052629,0.7603,-0.0142,0.1367,-118.29,94.70,25.24
826,2282057629,0.7612,-0.0195,0.1460,-117.13,95.49,24.63
827,2282062628,0.7612,-0.0239,0.1475,-115.49,96.22,23.90
828,2282067629,0.7549,-0.0269,0.1587,-113.23,96.77,23.11
829,2282072865,0.7520,-0.0322,0.1797,-111.04,97.50,22.26
830,2282077629,0.7578,-0.0317,0.2002,-109.15,98.23,21.46
831,2282082628,0.7656,-0.0337,0.2124,-107.13,98.96,20.49
832,2282087629,0.7622,-0.0352,0.2231,-105.61,99.45,19.82
833,2282092628,0.7412,-0.0312,0.2368,-104.15,99.76,18.84
834,2282097629,0.7266,-0.0337,0.2480,-103.23,100.12,17.62
835,2282102629,0.7290,-0.0303,0.2607,-103.17,100.30,16.34
836,2282107629,0.7271,-0.0308,0.2559,-103.23,100.24,15.06
837,2282112629,0.7349,-0.0229,0.2642,-103.84,100.24,13.72
838,2282117627,0.7417,-0.0137,0.2700,-105.18,99.88,12.38
839,2282122631,0.7480,-0.0083,0.2710,-107.20,99.63,11.16
840,2282127628,0.7466,-0.0044,0.2773,-109.63,99.21,9.88
841,2282132629,0.7402,0.0010,0.2881,-112.20,98.72,8.84
842,2282137627,0.7529,-0.0088,0.2949,-114.63,98.29,8.05
843,2282142629,0.7534,-0.0103,0.3032,-116.34,97.87,7.38
844,2282147628,0.7402,-0.0161,0.3193,-117.93,97.50,6.65
845,2282152629,0.7300,-0.0215,0.3394,-118.90,97.38,5.91
846,2282157627,0.7407,-0.0278,0.3452,-118.72,97.20,5.30
847,2282162629,0.7319,-0.0371,0.3560,-117.56,97.26,4.76
848,2282167628,0.7266,-0.0396,0.3696,-115.61,97.50,4.15
849,2282172627,0.7266,-0.0322,0.3921,-113.48,97.80,3.72
850,2282177629,0.7290,-0.0312,0.3999,-111.34,98.23,3.35
851,2282183060,0.7412,-0.0249,0.4106,-109.09,98.72,2.93
852,2282187629,0.7456,-0.0186,0.4282,-107.80,99.27,2.93
853,2282192629,0.7480,-0.0205,0.4438,-106.71,99.88,2.80
854,2282197630,0.7520,-0.0225,0.4463,-105.79,100.61,2.87
855,2282202627,0.7534,-0.0210,0.4468,-104.94,101.52,2.99
856,2282207629,0.7393,-0.0249,0.4570,-104.02,102.56,3.11
857,2282212632,0.7207,-0.0225,0.4634,-103.35,103.84,3.17
858,2282217629,0.7100,-0.0283,0.4712,-102.99,104.76,3.29
859,2282222629,0.7119,-0.0186,0.4814,-102.68,105.98,3.23
860,2282227629,0.7007,-0.0181,0.4922,-102.13,107.20,2.93
861,2282232628,0.6958,-0.0200,0.5024,-101.46,108.35,2.80
862,2282237629,0.7080,-0.0195,0.5176,-100.73,109.57,2.62
863,2282242629,0.7158,-0.0190,0.5312,-100.18,110.85,2.62
864,2282247629,0.7085,-0.0308,0.5454,-99.63,112.01,2.68
865,2282252628,0.7056,-0.0400,0.5674,-99.02,112.93,2.99
866,2282257629,0.7090,-0.0435,0.5908,-98.48,113.84,3.35
867,2282262629,0.6997,-0.0522,0.5996,-97.01,114.82,3.90
868,2282267629,0.6909,-0.0513,0.6147,-94.63,115.85,4.39
869,2282272628,0.6870,-0.0527,0.6313,-91.52,116.83,4.88
870,2282277629,0.6890,-0.0630,0.6572,-87.74,117.99,5.30
871,2282282629,0.6851,-0.0654,0.6567,-83.66,119.27,5.55
872,2282287629,0.6709,-0.0718,0.6641,-79.51,120.49,5.73
873,2282292628,0.6484,-0.0732,0.6714,-76.16,121.59,5.61
874,2282297629,0.6440,-0.0781,0.6855,-73.96,122.99,5.43
875,2282302629,0.6465,-0.0903,0.6973,-72.87,124.33,5.06
876,2282307629,0.6333,-0.0928,0.6992,-72.68,125.30,4.51
877,2282312629,0.6177,-0.1001,0.7231,-72.99,126.22,3.78
878,2282317627,0.6108,-0.0996,0.7339,-73.66,126.95,2.80
879,2282322629,0.6074,-0.1025,0.7568,-74.57,127.38,1.59
880,2282327628,0.6035,-0.0972,0.7710,-75.43,127.50,0.49
881,2282332630,0.6006,-0.1021,0.7856,-75.85,127.32,-0.91
882,2282337627,0.5962,-0.0952,0.8149,-76.22,126.89,-2.26
883,2282342629,0.6006,-0.0806,0.8379,-76.77,126.22,-3.60
884,2282347628,0.6162,-0.0762,0.8530,-77.26,125.67,-4.82
885,2282352629,0.6279,-0.0732,0.8657,-78.11,124.70,-5.91
886,2282357627,0.6187,-0.0693,0.8809,-78.90,123.72,-6.83
887,2282362629,0.6045,-0.0684,0.8960,-79.82,122.68,-7.87
888,2282367628,0.6006,-0.0698,0.9033,-80.37,121.95,-8.78
889,2282372629,0.5918,-0.0723,0.9111,-80.55,121.28,-9.63
890,2282377627,0.5874,-0.0747,0.9263,-80.18,120.67,-10.37
891,2282382995,0.5889,-0.0781,0.9453,-78.96,120.06,-11.28
892,2282387629,0.5874,-0.0879,0.9487,-77.87,119.57,-12.07
893,2282392629,0.5874,-0.1030,0.9609,-76.10,118.84,-12.93
894,2282397629,0.5947,-0.1235,0.9634,-74.70,118.05,-13.78
895,2282402628,0.5981,-0.1318,0.9736,-73.90,117.07,-14.70
896,2282407629,0.5840,-0.1494,0.9854,-74.27,116.28,-15.85
897,2282412629,0.5698,-0.1660,0.9990,-75.43,115.30,-17.20
898,2282417629,0.5601,-0.1733,1.0049,-77.01,114.57,-18.54
899,2282422628,0.5420,-0.1777,1.0327,-78.48,113.78,-20.00
900,2282427629,0.5435,-0.1758,1.0439,-79.02,113.41,-21.28
901,2282432629,0.5483,-0.1758,1.0576,-77.56,112.80,-22.62
902,2282437629,0.5581,-0.1660,1.0723,-74.70,112.20,-23.54
903,2282442628,0.5571,-0.1611,1.0908,-71.34,111.46,-24.45
904,2282447629,0.5674,-0.1499,1.1123,-68.23,110.91,-25.00
905,2282452629,0.5728,-0.1436,1.1279,-66.04,110.37,-25.49
906,2282457629,0.5708,-0.1406,1.1343,-64.57,109.70,-25.73
907,2282462628,0.5879,-0.1523,1.1289,-63.72,108.78,-25.73
908,2282467629,0.5815,-0.1421,1.1396,-63.84,107.68,-25.85
909,2282472629,0.5557,-0.1406,1.1641,-64.82,106.65,-26.40
910,2282477629,0.5610,-0.1646,1.1558,-66.34,105.55,-27.32
911,2282482629,0.5747,-0.1860,1.1519,-68.60,103.84,-28.41
912,2282487629,0.5601,-0.1992,1.1626,-70.18,102.74,-29.51
913,2282492790,0.5366,-0.2158,1.1851,-71.59,101.40,-31.28
914,2282497629,0.5576,-0.2334,1.1880,-71.34,100.49,-32.99
915,2282502629,0.5781,-0.2476,1.1650,-68.11,99.51,-34.88
916,2282507629,0.5674,-0.2490,1.1665,-62.87,98.54,-36.65
917,2282512627,0.5586,-0.2607,1.1680,-57.20,97.44,-38.48
918,2282517629,0.5591,-0.2622,1.1777,-52.99,96.65,-40.37
919,2282522629,0.5464,-0.2510,1.1919,-50.49,96.16,-42.13
920,2282527629,0.5347,-0.2485,1.1860,-49.45,95.85,-43.84
921,2282532628,0.5171,-0.2344,1.1787,-49.88,95.49,-45.30
922,2282537629,0.4780,-0.2095,1.1963,-51.59,94.94,-46.77
923,2282542627,0.4526,-0.2124,1.2183,-54.21,94.70,-48.05
924,2282547629,0.4482,-0.2002,1.2271,-56.46,94.63,-49.27
925,2282552814,0.3940,-0.1763,1.2207,-56.52,94.63,-50.61
926,2282557630,0.3447,-0.1782,1.2188,-54.70,94.33,-52.13
927,2282562629,0.3345,-0.1855,1.2256,-51.52,93.96,-53.78
928,2282567627,0.3306,-0.1831,1.2305,-47.74,93.78,-55.30
929,2282572629,0.3057,-0.1709,1.2217,-44.09,93.17,-56.95
930,2282577628,0.3198,-0.1982,1.2241,-41.65,92.50,-58.11
931,2282582629,0.3491,-0.1807,1.2437,-41.22,91.89,-58.96
932,2282587627,0.3584,-0.1646,1.2490,-42.68,91.28,-59.39
933,2282592631,0.3838,-0.1660,1.2505,-45.18,90.67,-59.21
934,2282597628,0.3760,-0.1675,1.2471,-48.05,90.06,-58.48
935,2282602629,0.3589,-0.1489,1.2729,-50.06,89.76,-57.68
936,2282607627,0.3276,-0.1548,1.2710,-50.00,89.82,-56.65
937,2282613052,0.3008,-0.1548,1.2524,-47.26,89.70,-55.30
938,2282617629,0.2583,-0.1494,1.2578,-44.39,89.57,-54.51
939,2282622629,0.2095,-0.1514,1.2593,-41.16,89.39,-54.02
940,2282627629,0.1934,-0.1631,1.2554,-39.02,89.21,-53.48
941,2282632627,0.1709,-0.1699,1.2563,-38.66,89.45,-53.11
942,2282637627,0.1494,-0.1685,1.2666,-40.06,89.02,-52.87
943,2282642629,0.1548,-0.1812,1.2515,-42.50,89.02,-52.38
944,2282647629,0.1729,-0.1982,1.2285,-44.76,88.84,-51.77
945,2282652628,0.1948,-0.2012,1.2134,-46.71,88.84,-51.04
946,2282657629,0.1748,-0.2148,1.1968,-48.41,88.41,-50.06
947,2282662629,0.1494,-0.2144,1.1958,-49.57,89.39,-48.84
948,2282667629,0.1401,-0.2021,1.1963,-49.63,90.30,-47.62
949,2282672628,0.1704,-0.2271,1.1777,-48.48,91.46,-46.16
950,2282677629,0.1646,-0.2358,1.1851,-46.40,92.56,-44.39
951,2282682629,0.1118,-0.2246,1.1992,-43.84,93.72,-42.80
952,2282687630,0.0791,-0.2124,1.2080,-40.98,95.00,-41.46
953,2282692628,0.0698,-0.2090,1.2056,-37.68,96.22,-40.43
954,2282697629,0.0605,-0.2227,1.2031,-34.27,97.20,-39.15
955,2282702629,0.0332,-0.2197,1.1987,-31.46,98.35,-37.93
956,2282707629,-0.0093,-0.2065,1.2012,-29.21,99.45,-36.77
957,2282712628,-0.0425,-0.1992,1.1958,-28.17,100.67,-35.73
958,2282717629,-0.0415,-0.2075,1.1948,-28.48,101.59,-34.45
959,2282722629,-0.0371,-0.1992,1.1904,-29.76,102.50,-32.93
960,2282727629,-0.0312,-0.1973,1.1772,-31.77,103.35,-31.04
961,2282732628,-0.0220,-0.1733,1.1743,-33.90,104.45,-28.96
962,2282737629,-0.0254,-0.1562,1.1802,-35.73,105.30,-26.89
963,2282742629,-0.0137,-0.1621,1.1680,-36.89,106.46,-24.33
964,2282747629,0.0161,-0.1650,1.1562,-36.95,107.50,-21.40
965,2282752628,0.0376,-0.1660,1.1660,-35.55,108.72,-18.17
966,2282757629,0.0225,-0.1562,1.1758,-32.80,110.06,-15.00
967,2282762629,-0.0068,-0.1509,1.1729,-28.60,111.10,-12.13
968,2282767629,-0.0444,-0.1362,1.1733,-23.66,111.71,-9.88
969,2282773160,-0.0928,-0.1445,1.1816,-18.35,112.20,-7.68
970,2282777629,-0.1055,-0.1528,1.1777,-15.67,112.38,-6.65
971,2282782629,-0.1406,-0.1572,1.1694,-13.60,112.32,-5.55
972,2282787629,-0.2134,-0.1489,1.1616,-12.93,112.07,-5.00
973,2282792628,-0.2876,-0.1401,1.1729,-14.15,111.52,-4.94
974,2282797629,-0.3252,-0.1416,1.1807,-17.26,111.40,-5.12
975,2282802629,-0.3286,-0.1484,1.1729,-21.89,110.91,-5.30
976,2282807629,-0.3418,-0.1494,1.1836,-27.26,110.55,-5.30
977,2282812627,-0.3604,-0.1479,1.1772,-32.68,110.18,-4.94
978,2282817627,-0.3394,-0.1455,1.1699,-37.20,109.88,-4.27
979,2282822627,-0.2930,-0.1475,1.1714,-40.43,109.45,-2.93
980,2282827631,-0.2339,-0.1445,1.1875,-42.62,109.33,-1.10
981,2282832629,-0.1978,-0.1553,1.1909,-44.15,109.09,1.28
982,2282837629,-0.1611,-0.1558,1.1978,-45.06,108.96,4.27
983,2282842628,-0.1411,-0.1455,1.2173,-45.18,108.66,7.68
984,2282847628,-0.1504,-0.1440,1.2158,-44.27,108.54,11.16
985,2282852627,-0.1816,-0.1250,1.2246,-42.44,108.23,14.57
986,2282857627,-0.2183,-0.1108,1.2173,-39.63,107.99,17.68
987,2282862627,-0.2397,-0.1284,1.2119,-36.16,107.80,21.22
988,2282867629,-0.2515,-0.1465,1.2056,-34.39,107.99,23.66
989,2282872628,-0.2788,-0.1577,1.1841,-32.74,108.11,26.59
990,2282877627,-0.3369,-0.1572,1.1948,-32.20,108.60,29.39
991,2282882631,-0.4019,-0.1523,1.2026,-32.01,109.27,31.65
992,2282887627,-0.4556,-0.1558,1.1836,-32.32,110.18,33.72
993,2282892637,-0.4878,-0.1611,1.1460,-32.38,111.16,35.73
994,2282897628,-0.5000,-0.1587,1.1323,-32.56,111.77,37.50
995,2282902844,-0.5107,-0.1543,1.1372,-33.90,112.32,39.70
996,2282907629,-0.5361,-0.1455,1.1436,-35.73,112.74,40.91
997,2282912628,-0.5479,-0.1406,1.1504,-39.57,113.05,42.87
998,2282917629,-0.5249,-0.1392,1.1431,-42.50,113.23,44.39
999,2282922629,-0.4961,-0.1431,1.1450,-47.13,113.05,46.95
1000,2282927629,-0.4927,-0.1431,1.1484,-50.06,112.80,49.02
1001,2282932629,-0.4878,-0.1294,1.1670,-53.41,112.74,51.83
1002,2282937629,-0.4854,-0.1230,1.1675,-55.37,112.62,54.76
1003,2282942628,-0.4541,-0.1279,1.1670,-55.61,112.50,58.11
1004,2282947629,-0.4082,-0.1343,1.1602,-53.90,112.50,62.01
1005,2282952629,-0.3838,-0.1392,1.1494,-50.85,112.32,66.04
1006,2282957629,-0.4185,-0.1372,1.1582,-47.80,112.38,70.06
1007,2282962628,-0.4614,-0.1455,1.1670,-45.55,112.26,73.84
1008,2282967629,-0.4688,-0.1528,1.1626,-44.39,112.44,77.26
1009,2282972627,-0.4707,-0.1758,1.1362,-43.72,112.93,80.73
1010,2282977718,-0.5190,-0.1880,1.1191,-42.99,113.54,84.82
1011,2282982629,-0.5659,-0.1753,1.1079,-42.38,114.15,87.32
1012,2282987630,-0.6250,-0.1650,1.0664,-41.34,114.88,89.09
1013,2282992629,-0.6699,-0.1641,1.0327,-41.28,115.43,90.98
1014,2282997628,-0.7100,-0.1719,1.0244,-42.93,116.28,92.62
1015,2283002629,-0.7456,-0.1680,1.0264,-46.83,117.07,94.02
1016,2283007627,-0.7715,-0.1724,1.0186,-52.26,117.74,95.43
1017,2283012631,-0.7744,-0.1694,0.9912,-57.87,118.35,97.01
1018,2283017629,-0.7520,-0.1597,0.9854,-62.62,119.09,98.78
1019,2283022628,-0.7437,-0.1553,0.9663,-66.16,119.63,100.85
1020,2283027628,-0.7158,-0.1460,0.9790,-68.66,120.00,103.29
1021,2283032629,-0.6675,-0.1484,0.9888,-70.12,120.30,106.04
1022,2283037628,-0.6558,-0.1450,1.0044,-71.34,120.98,109.21
1023,2283042629,-0.6899,-0.1196,1.0386,-72.07,121.52,112.38
1024,2283047627,-0.7207,-0.1035,1.0557,-72.56,122.13,115.37
1025,2283052630,-0.7202,-0.1074,1.0562,-72.62,122.68,118.54
1026,2283057628,-0.7070,-0.1094,1.0459,-72.56,123.17,121.89
1027,2283062629,-0.7070,-0.1094,1.0518,-72.62,123.78,125.37
1028,2283067627,-0.7080,-0.1211,1.0464,-72.62,124.45,128.96
1029,2283072629,-0.7080,-0.1172,1.0347,-72.62,125.61,133.60
1030,2283077628,-0.7056,-0.1143,1.0283,-72.20,126.52,136.71
1031,2283082629,-0.7100,-0.1182,1.0059,-70.37,127.87,141.40
1032,2283087627,-0.7188,-0.1240,0.9844,-68.78,128.84,144.51
1033,2283092629,-0.7505,-0.1255,0.9546,-65.79,130.43,148.96
1034,2283097628,-0.7773,-0.1240,0.9414,-64.15,131.59,151.89
1035,2283102629,-0.8208,-0.1240,0.9355,-62.32,133.66,155.79
1036,2283107629,-0.8652,-0.1260,0.9126,-61.65,135.49,158.54
1037,2283112629,-0.9150,-0.1250,0.8789,-61.83,137.26,160.91
1038,2283117629,-0.9570,-0.1353,0.8687,-62.99,138.54,162.99
1039,2283122629,-0.9932,-0.1377,0.8706,-65.30,140.00,164.82
1040,2283127727,-1.0073,-0.1382,0.8599,-67.99,141.40,166.52
1041,2283132631,-1.0332,-0.1392,0.8398,-70.30,142.80,168.17
1042,2283137627,-1.0684,-0.1255,0.8228,-72.07,143.90,169.82
1043,2283142631,-1.0801,-0.1191,0.8101,-72.93,144.76,171.34
1044,2283147628,-1.0884,-0.1035,0.8105,-73.35,145.79,172.74
1045,2283152630,-1.0918,-0.0840,0.8105,-73.54,146.46,174.21
1046,2283157627,-1.1025,-0.0635,0.8125,-73.66,147.50,175.67
1047,2283162627,-1.0977,-0.0508,0.8003,-73.23,148.48,176.95
1048,2283167894,-1.1040,-0.0356,0.7598,-72.26,149.15,178.35
1049,2283172835,-1.1167,-0.0215,0.7388,-71.59,149.39,179.94
1050,2283177629,-1.1274,-0.0103,0.7402,-72.44,149.57,181.40
1051,2283182629,-1.1216,-0.0137,0.7720,-75.91,149.51,182.80
1052,2283187628,-1.1304,-0.0044,0.7915,-81.28,149.88,184.33
1053,2283192628,-1.1470,0.0073,0.7886,-86.71,150.12,186.16
1054,2283197629,-1.1558,0.0107,0.7642,-90.61,150.12,187.93
1055,2283202629,-1.1841,-0.0020,0.7427,-92.50,149.88,189.70
1056,2283207629,-1.2202,-0.0049,0.7324,-92.50,149.15,191.71
1057,2283212629,-1.2690,0.0029,0.7168,-91.46,148.66,193.48
1058,2283217627,-1.3115,0.0000,0.6982,-90.00,148.23,195.06
1059,2283222629,-1.3433,-0.0103,0.6802,-88.60,148.05,196.59
1060,2283227628,-1.3921,-0.0034,0.6616,-87.01,148.05,197.99
1061,2283232684,-1.4219,0.0024,0.6338,-85.98,148.29,199.15
1062,2283237629,-1.4170,0.0083,0.6147,-85.43,148.72,200.37
1063,2283242629,-1.3857,0.0088,0.6177,-85.61,149.21,201.46
1064,2283247628,-1.3481,0.0176,0.6177,-86.22,149.88,202.80
1065,2283252629,-1.3154,0.0161,0.6094,-86.65,150.61,204.39
1066,2283257628,-1.2837,0.0103,0.5991,-87.07,151.34,206.46
1067,2283262629,-1.2715,0.0054,0.6035,-87.50,151.77,208.90
1068,2283267628,-1.2998,0.0098,0.6123,-88.05,152.01,211.34
1069,2283272629,-1.3545,0.0020,0.6133,-88.90,152.20,213.66
1070,2283277627,-1.4092,-0.0166,0.5986,-89.82,152.32,215.98
1071,2283282627,-1.4434,-0.0171,0.6001,-90.67,152.13,217.99
1072,2283287629,-1.4863,-0.0176,0.6045,-91.71,151.95,219.76
1073,2283292629,-1.5459,-0.0098,0.6089,-92.38,151.77,221.10
1074,2283297629,-1.5977,-0.0015,0.6128,-92.62,151.40,222.38
1075,2283302627,-1.6353,-0.0005,0.6016,-92.38,150.85,223.35
1076,2283307627,-1.6567,0.0127,0.5957,-91.77,150.00,224.33
1077,2283312627,-1.6929,0.0278,0.6099,-91.22,149.02,225.12
1078,2283317627,-1.7065,0.0400,0.6206,-90.91,147.87,226.04
1079,2283322627,-1.6743,0.0410,0.6099,-91.04,146.40,227.26
1080,2283327627,-1.6440,0.0532,0.5977,-91.89,144.76,228.72
1081,2283332627,-1.6250,0.0659,0.6138,-94.33,142.93,230.43
1082,2283337632,-1.5874,0.0825,0.6421,-98.23,141.22,232.38
1083,2283342629,-1.5474,0.1025,0.6572,-102.26,139.76,234.63
1084,2283347628,-1.4868,0.1021,0.6382,-104.76,138.23,237.13
1085,2283352627,-1.4453,0.1050,0.6157,-105.00,136.40,240.00
1086,2283357628,-1.4570,0.1206,0.6201,-103.41,134.76,242.93
1087,2283362629,-1.4976,0.1338,0.6401,-100.67,133.35,245.55
1088,2283367627,-1.5361,0.1494,0.6416,-96.77,132.26,247.62
1089,2283372629,-1.5669,0.1577,0.6299,-91.71,131.28,249.27
1090,2283377628,-1.6123,0.1733,0.6069,-85.61,129.82,250.73
1091,2283382629,-1.6372,0.1772,0.5815,-80.00,127.99,251.95
1092,2283387629,-1.6636,0.2017,0.6030,-76.10,125.73,252.68
1093,2283392629,-1.6763,0.2139,0.6128,-76.22,122.99,253.23
1094,2283397627,-1.6626,0.2402,0.6133,-80.12,119.70,253.35
1095,2283402629,-1.6421,0.2476,0.6123,-87.62,115.79,253.29
1096,2283407631,-1.5894,0.2471,0.6118,-97.80,111.10,253.29
1097,2283412628,-1.5581,0.2471,0.6196,-110.55,105.98,253.29
1098,2283417628,-1.5166,0.2202,0.6265,-125.00,100.18,253.48
1099,2283422629,-1.4600,0.1924,0.6475,-138.96,94.27,254.09
1100,2283427628,-1.4131,0.1860,0.6489,-149.33,88.84,254.76
1101,2283432629,-1.3896,0.1689,0.6431,-154.27,83.60,255.43
1102,2283437669,-1.3828,0.1611,0.6304,-154.02,77.80,256.04
1103,2283442627,-1.3799,0.1499,0.6270,-149.63,72.26,256.71
1104,2283447629,-1.3530,0.1294,0.6333,-143.35,67.01,257.32
1105,2283453000,-1.3452,0.1289,0.6499,-137.62,62.20,257.93
1106,2283457629,-1.3877,0.1382,0.6665,-133.29,57.87,258.11
1107,2283462629,-1.4336,0.1499,0.6719,-130.61,53.72,257.68
1108,2283467629,-1.4399,0.1367,0.6523,-129.88,49.45,257.32
1109,2283472628,-1.4131,0.1216,0.6465,-131.22,45.00,257.07
1110,2283477629,-1.4082,0.1265,0.6538,-134.02,40.49,256.89
1111,2283482629,-1.4043,0.1270,0.6455,-137.38,35.85,256.77
1112,2283487630,-1.3945,0.1221,0.6455,-140.73,30.85,256.59
1113,2283492628,-1.3721,0.1128,0.6401,-144.02,25.67,256.34
1114,2283497629,-1.3159,0.0923,0.6313,-147.50,20.06,256.52
1115,2283502629,-1.2739,0.0908,0.6357,-151.22,14.27,256.89
1116,2283507630,-1.2749,0.1006,0.6641,-155.55,8.35,257.20
1117,2283512628,-1.2827,0.1182,0.6841,-160.18,2.26,257.38
1118,2283517629,-1.2734,0.1094,0.6895,-164.94,-4.39,257.50
1119,2283522629,-1.2163,0.0762,0.6621,-169.88,-11.52,258.11
1120,2283527630,-1.1909,0.0762,0.6904,-175.73,-19.21,259.15
1121,2283532628,-1.2285,0.0845,0.7568,-181.95,-27.01,260.06
1122,2283537629,-1.2642,0.0908,0.8022,-187.07,-34.51,260.61
1123,2283542629,-1.2632,0.0791,0.8047,-189.02,-42.20,261.22
1124,2283547629,-1.2749,0.0713,0.8159,-187.20,-50.49,261.83
1125,2283552628,-1.2993,0.0854,0.8433,-182.13,-59.33,262.38
1126,2283557629,-1.3164,0.0933,0.8745,-175.00,-68.17,262.74
1127,2283562629,-1.2715,0.0522,0.8677,-167.50,-77.56,263.17
1128,2283567629,-1.2349,0.0347,0.8647,-160.67,-87.20,264.02
1129,2283572627,-1.2583,0.0405,0.8652,-155.30,-97.13,264.76
1130,2283577629,-1.2930,0.0264,0.8843,-152.26,-107.07,265.00
1131,2283582629,-1.2505,-0.0127,0.8696,-151.46,-117.07,264.94
1132,2283587628,-1.1841,-0.0830,0.8262,-151.95,-127.13,265.18
1133,2283592629,-1.1221,-0.1548,0.7852,-152.87,-137.20,265.73
1134,2283597627,-1.0933,-0.2119,0.7661,-152.93,-147.13,266.22
1135,2283602629,-1.1050,-0.2534,0.7402,-150.91,-156.83,266.40
1136,2283607628,-1.1504,-0.2876,0.7173,-146.28,-166.34,265.85
1137,2283612629,-1.2056,-0.3257,0.7095,-139.82,-175.79,264.39
1138,2283617629,-1.2246,-0.3950,0.6841,-132.93,-185.43,262.44
1139,2283622629,-1.2319,-0.4365,0.6748,-127.50,-195.24,260.24
1140,2283627628,-1.2646,-0.4668,0.7017,-124.15,-204.94,257.62
1141,2283632629,-1.2778,-0.5254,0.7397,-122.74,-214.15,254.63
1142,2283637629,-1.2686,-0.5703,0.7339,-121.46,-223.05,251.83
1143,2283642629,-1.2793,-0.6025,0.7397,-118.60,-231.65,249.09
1144,2283647628,-1.2554,-0.6108,0.7476,-113.60,-240.43,246.28
1145,2283652629,-1.2808,-0.5874,0.7651,-107.13,-249.45,243.41
1146,2283657627,-1.2788,-0.5693,0.8047,-100.30,-258.54,240.43
1147,2283662629,-1.2803,-0.5596,0.8252,-93.35,-268.17,237.68
1148,2283667628,-1.2471,-0.5464,0.7993,-86.71,-278.60,235.12
1149,2283672629,-1.2402,-0.5371,0.7715,-81.22,-290.43,232.62
1150,2283677627,-1.1973,-0.5493,0.7393,-77.44,-303.78,230.18
1151,2283682629,-1.0674,-0.6011,0.6880,-75.24,-317.50,227.99
1152,2283687628,-0.9453,-0.6470,0.6343,-73.17,-331.40,226.04
1153,2283692629,-0.8633,-0.6890,0.5620,-69.94,-345.37,224.09
1154,2283697627,-0.7988,-0.7446,0.4448,-64.51,-358.72,221.52
1155,2283702629,-0.7471,-0.8013,0.3218,-56.52,-371.40,218.60
1156,2283707628,-0.7207,-0.8442,0.2378,-46.34,-382.62,214.82
1157,2283712629,-0.7432,-0.8809,0.1528,-35.00,-391.77,209.82
1158,2283717627,-0.8320,-0.9248,0.0732,-24.27,-398.84,203.60
1159,2283722627,-0.9717,-0.9561,0.0029,-15.30,-404.21,196.34
1160,2283727629,-1.0679,-0.9746,-0.0352,-8.66,-408.11,187.93
1161,2283732629,-1.1826,-1.0000,-0.0571,-4.63,-410.67,178.60
1162,2283737633,-1.2437,-1.0288,-0.0649,-3.29,-412.62,169.09
1163,2283742630,-1.2446,-1.0537,-0.0581,-3.72,-414.94,159.76
1164,2283747627,-1.1235,-1.1074,-0.0830,-4.88,-418.23,151.16
1165,2283752627,-0.8682,-1.1611,-0.1924,-5.49,-423.23,143.78
1166,2283757628,-0.7051,-1.1338,-0.2510,-4.21,-429.27,136.46
1167,2283762629,-0.6338,-1.0723,-0.3154,-0.73,-435.30,127.62
1168,2283767628,-0.5630,-1.0698,-0.4077,4.33,-440.43,117.74
1169,2283772628,-0.4858,-1.0786,-0.4863,10.06,-444.82,107.50
1170,2283777629,-0.4839,-1.0835,-0.5361,15.61,-447.26,97.20
1171,2283782629,-0.5625,-1.0894,-0.5552,20.00,-448.29,87.01
1172,2283787629,-0.6431,-1.0952,-0.5444,23.35,-446.83,77.68
1173,2283792627,-0.6538,-1.1006,-0.5435,26.77,-443.54,69.27
1174,2283797627,-0.6040,-1.0933,-0.6021,31.77,-439.70,61.77
1175,2283802627,-0.5859,-1.0400,-0.6328,39.39,-436.28,55.06
1176,2283807627,-0.5562,-0.9712,-0.6133,48.90,-433.96,48.90
1177,2283812627,-0.4976,-0.9087,-0.5894,59.02,-432.93,43.17
1178,2283817627,-0.4409,-0.8413,-0.5581,68.29,-433.41,38.05
1179,2283822629,-0.4072,-0.8115,-0.5239,75.79,-435.79,33.54
1180,2283827627,-0.3369,-0.8569,-0.5620,80.49,-439.82,29.94
1181,2283832627,-0.2939,-0.8726,-0.5879,80.91,-445.00,27.01
1182,2283837627,-0.3921,-0.8579,-0.5703,76.34,-448.90,22.93
1183,2283842627,-0.5205,-0.8921,-0.5679,67.07,-450.61,17.38
1184,2283847627,-0.5303,-0.9614,-0.6143,56.22,-450.30,11.04
1185,2283852627,-0.5000,-1.0176,-0.7363,48.78,-447.74,5.06
1186,2283857627,-0.5054,-1.0454,-0.8213,47.93,-443.96,-0.61
1187,2283862631,-0.5142,-1.0557,-0.8716,54.33,-438.48,-5.79
1188,2283867628,-0.5063,-1.0278,-0.9209,67.62,-431.77,-10.49
1189,2283872627,-0.5127,-1.0024,-0.9902,87.74,-425.06,-14.45
1190,2283877627,-0.5273,-0.9712,-1.0708,112.32,-419.57,-17.20
1191,2283882627,-0.6401,-0.9131,-1.1001,137.20,-415.43,-19.09
1192,2283887631,-0.7681,-0.8662,-1.0757,158.60,-412.87,-20.61
1193,2283892629,-0.8159,-0.8901,-1.0679,172.38,-411.95,-21.16
1194,2283897629,-0.7104,-0.9302,-1.1367,177.87,-412.93,-20.91
1195,2283902640,-0.7485,-0.8887,-1.1489,174.82,-414.57,-21.22
1196,2283907629,-0.8867,-0.8984,-1.1904,163.05,-415.61,-23.48
1197,2283912627,-0.9316,-0.9351,-1.2446,144.63,-416.28,-27.56
1198,2283917629,-0.8413,-0.9771,-1.3413,125.06,-416.77,-32.68
1199,2283922629,-0.8086,-0.9946,-1.4136,109.15,-416.71,-38.72
1200,2283927627,-0.8862,-1.0024,-1.4590,98.60,-415.85,-45.49
1201,2283932627,-0.9619,-1.0205,-1.4717,94.63,-414.09,-52.93
1202,2283937628,-0.9893,-1.0308,-1.5029,97.07,-411.77,-59.94
1203,2283942629,-1.0405,-1.0200,-1.5264,105.43,-409.76,-66.16
1204,2283947627,-1.1426,-0.9863,-1.5156,117.20,-408.23,-71.59
1205,2283952629,-1.2554,-0.9634,-1.4756,129.70,-407.56,-75.79
1206,2283957628,-1.3423,-0.9575,-1.4175,140.49,-407.74,-78.60
1207,2283962629,-1.4072,-0.9087,-1.3564,148.48,-408.72,-79.94
1208,2283967627,-1.4604,-0.9165,-1.3413,153.29,-410.79,-80.24
1209,2283972630,-1.3921,-0.9463,-1.4102,154.02,-414.39,-79.88
1210,2283977627,-1.3369,-0.9424,-1.4678,148.48,-417.68,-80.55
1211,2283982627,-1.4326,-0.9902,-1.5469,134.33,-419.33,-84.21
1212,2283987629,-1.5605,-1.0576,-1.6411,112.20,-418.84,-91.28
1213,2283992629,-1.6318,-1.1685,-1.8047,86.95,-416.95,-101.10
1214,2283997627,-1.6309,-1.2534,-1.9170,63.35,-414.39,-112.74
1215,2284002629,-1.6211,-1.3145,-1.9897,42.87,-411.04,-126.10
1216,2284007628,-1.7168,-1.3652,-1.9795,25.61,-406.59,-140.49
1217,2284012629,-1.7993,-1.4082,-1.9517,12.62,-401.16,-155.55
1218,2284017627,-1.7939,-1.4199,-1.9155,5.24,-395.55,-170.61
1219,2284022629,-1.8516,-1.4619,-1.8657,4.09,-390.61,-184.51
1220,2284027627,-2.1772,-1.3584,-1.8994,7.80,-387.50,-196.65
1221,2284032629,-1.9482,-1.4297,-1.5674,10.24,-384.09,-207.87
1222,2284037629,-1.7480,-1.2686,-1.3130,7.50,-378.72,-218.48
1223,2284042628,-1.8687,-1.2437,-1.4775,5.30,-374.39,-229.39
1224,2284047627,-2.0537,-1.1973,-1.6519,6.83,-371.83,-240.06
1225,2284052629,-2.0083,-1.1133,-1.6465,7.99,-370.06,-251.16
1226,2284057629,-2.0371,-1.0640,-1.6592,2.32,-367.68,-263.17
1227,2284062628,-2.2441,-1.0508,-1.7949,-12.07,-364.70,-276.40
1228,2284067629,-2.3613,-1.0122,-1.8340,-34.27,-360.98,-290.12
1229,2284072628,-2.3481,-0.9619,-1.7896,-61.16,-355.43,-304.39
1230,2284077628,-2.3179,-0.9175,-1.8135,-89.63,-348.60,-318.72
1231,2284082629,-2.3848,-0.8779,-1.8530,-117.13,-340.85,-333.05
1232,2284087629,-2.5146,-0.8447,-1.7964,-143.17,-331.40,-347.38
1233,2284092628,-2.5854,-0.8267,-1.6855,-166.52,-320.18,-361.16
1234,2284097627,-2.5752,-0.7915,-1.6074,-185.30,-307.44,-374.02
1235,2284102629,-2.5400,-0.7559,-1.5371,-197.20,-293.72,-385.73
1236,2284107629,-2.4673,-0.7417,-1.4487,-200.91,-279.70,-395.98
1237,2284112628,-2.4434,-0.7495,-1.3608,-195.67,-265.24,-404.33
1238,2284117629,-2.4224,-0.7217,-1.2559,-182.07,-250.98,-411.04
1239,2284122630,-2.3838,-0.6689,-1.1655,-160.98,-237.01,-416.04
1240,2284127629,-2.4170,-0.6406,-1.1494,-133.48,-223.84,-419.51
1241,2284132628,-2.5117,-0.6030,-1.2051,-101.16,-212.44,-421.34
1242,2284137629,-2.5889,-0.5571,-1.2764,-67.93,-202.68,-422.13
1243,2284142627,-2.6948,-0.4927,-1.2988,-39.15,-194.21,-421.83
1244,2284147629,-2.7412,-0.4199,-1.2979,-19.09,-186.28,-420.61
1245,2284152629,-2.7676,-0.3618,-1.3105,-9.09,-178.66,-418.54
1246,2284157627,-2.7842,-0.3306,-1.3335,-7.99,-171.22,-415.73
1247,2284162629,-2.8130,-0.3301,-1.3623,-14.39,-163.60,-412.01
1248,2284167629,-2.7856,-0.3369,-1.3613,-26.04,-155.49,-407.50
1249,2284172629,-2.6992,-0.3477,-1.3613,-40.73,-146.89,-402.20
1250,2284177628,-2.6143,-0.3667,-1.3477,-55.30,-138.11,-396.22
1251,2284182628,-2.4805,-0.4048,-1.3022,-66.40,-129.09,-389.45
1252,2284187639,-2.3623,-0.4653,-1.2661,-72.07,-120.00,-382.26
1253,2284192627,-2.3071,-0.5537,-1.2563,-71.10,-111.22,-375.18
1254,2284197631,-2.2935,-0.6470,-1.2100,-62.68,-100.98,-366.65
1255,2284202629,-2.2642,-0.6777,-1.1479,-53.41,-94.15,-361.52
1256,2284207629,-2.2520,-0.7251,-1.1113,-39.15,-85.30,-355.61
1257,2284212628,-2.3379,-0.7715,-1.0850,-23.96,-76.95,-350.73
1258,2284217629,-2.4170,-0.7979,-1.0190,-10.98,-68.29,-346.40
1259,2284222629,-2.3633,-0.7930,-0.9395,-1.52,-59.39,-342.68
1260,2284227629,-2.2749,-0.7861,-0.9072,5.43,-50.43,-339.33
1261,2284232629,-2.2256,-0.7656,-0.9072,11.95,-41.65,-336.40
1262,2284237629,-2.2183,-0.7637,-0.9116,17.99,-33.60,-333.78
1263,2284242627,-2.2266,-0.7788,-0.9316,22.87,-25.91,-331.71
1264,2284247629,-2.2222,-0.8018,-0.9521,25.91,-18.84,-330.00
1265,2284252646,-2.1895,-0.8257,-0.9614,27.13,-12.26,-328.29
1266,2284257627,-2.1392,-0.8638,-0.9595,26.04,-6.34,-326.65
1267,2284262629,-2.0947,-0.9058,-0.9678,22.44,-0.85,-324.82
1268,2284267629,-2.0972,-0.9590,-0.9673,16.95,3.96,-323.17
1269,2284272628,-2.0840,-0.9961,-0.9419,10.00,8.72,-321.59
1270,2284277630,-2.0342,-1.0391,-0.9253,3.54,13.29,-319.70
1271,2284282627,-1.9702,-1.0640,-0.9106,-1.04,17.68,-317.80
1272,2284287629,-1.9248,-1.0806,-0.9136,-2.32,21.52,-315.73
1273,2284292628,-1.9150,-1.0938,-0.9224,-0.73,25.06,-313.54
1274,2284297629,-1.9141,-1.1069,-0.9209,1.16,28.11,-311.59
1275,2284302627,-1.8506,-1.1157,-0.9072,0.91,31.34,-309.57
1276,2284307629,-1.7632,-1.1216,-0.8691,-2.68,34.88,-307.32
1277,2284312628,-1.6802,-1.1294,-0.8604,-8.17,38.54,-304.88
1278,2284317629,-1.6572,-1.1465,-0.8687,-13.84,42.44,-302.74
1279,2284322627,-1.6699,-1.1772,-0.8423,-20.06,46.22,-300.91
1280,2284327631,-1.6353,-1.2031,-0.8047,-26.95,50.18,-299.09
1281,2284332679,-1.5938,-1.2158,-0.7603,-33.90,54.76,-297.20
1282,2284338052,-1.5474,-1.2085,-0.7153,-39.57,59.39,-295.18
1283,2284342629,-1.4985,-1.2134,-0.6934,-42.32,63.90,-293.05
1284,2284347629,-1.4448,-1.2148,-0.6743,-42.20,68.05,-290.85
1285,2284352630,-1.4146,-1.2090,-0.6489,-39.94,71.95,-288.84
1286,2284357627,-1.3999,-1.2275,-0.6157,-37.38,75.61,-286.95
1287,2284362628,-1.3794,-1.2529,-0.6099,-35.43,79.09,-285.06
1288,2284367629,-1.3667,-1.2593,-0.6201,-34.15,82.38,-283.72
1289,2284372628,-1.4087,-1.2744,-0.6582,-33.48,83.96,-283.11
1290,2284377629,-1.4595,-1.3198,-0.6714,-34.27,85.85,-282.87
1291,2284382628,-1.4414,-1.3354,-0.6519,-37.44,88.72,-282.62
1292,2284387629,-1.3501,-1.3398,-0.6240,-41.28,91.34,-281.95
1293,2284392628,-1.2534,-1.3281,-0.6436,-42.80,93.78,-280.98
1294,2284397629,-1.1904,-1.3174,-0.6670,-40.12,95.61,-279.88
1295,2284402627,-1.1509,-1.3169,-0.6777,-34.70,96.65,-278.78
1296,2284408145,-1.1084,-1.3198,-0.6655,-28.35,97.13,-277.32
1297,2284412629,-1.1011,-1.3198,-0.6553,-25.91,97.32,-276.59
1298,2284417629,-1.0884,-1.3188,-0.6519,-25.91,97.32,-275.73
1299,2284422629,-1.0757,-1.3149,-0.6494,-29.39,97.20,-275.12
1300,2284427629,-1.0605,-1.2905,-0.6421,-36.16,97.01,-274.51
1301,2284432628,-1.0557,-1.2690,-0.6318,-45.00,97.07,-274.02
1302,2284437630,-1.0356,-1.2139,-0.6123,-54.09,97.32,-273.41
1303,2284442629,-0.9795,-1.1479,-0.6196,-61.71,97.80,-272.13
1304,2284447629,-0.9116,-1.0957,-0.6035,-66.83,98.54,-270.55
1305,2284452627,-0.8452,-1.0283,-0.5986,-69.21,99.33,-268.05
1306,2284457627,-0.8027,-0.9585,-0.5864,-69.51,100.18,-265.18
1307,2284462627,-0.7593,-0.9062,-0.5728,-68.90,101.04,-261.77
1308,2284467629,-0.7129,-0.8521,-0.5605,-68.05,102.07,-258.11
1309,2284472629,-0.6602,-0.8145,-0.5610,-67.20,103.11,-253.90
1310,2284477629,-0.6025,-0.7900,-0.5562,-66.40,104.27,-249.27
1311,2284482628,-0.5654,-0.7715,-0.5708,-65.55,105.37,-244.27
1312,2284487664,-0.5122,-0.7656,-0.5620,-64.51,106.28,-239.02
1313,2284492627,-0.4463,-0.7495,-0.5464,-62.62,107.32,-233.35
1314,2284497629,-0.3901,-0.7261,-0.5293,-59.27,107.62,-227.44
1315,2284502628,-0.3418,-0.7012,-0.5205,-54.33,107.99,-221.52
1316,2284507627,-0.3052,-0.6714,-0.5034,-47.87,107.74,-215.49
1317,2284512627,-0.2837,-0.6392,-0.4917,-40.85,107.20,-209.63
1318,2284517627,-0.2446,-0.6055,-0.4756,-33.05,106.16,-202.87
1319,2284522629,-0.2290,-0.5845,-0.4648,-29.15,105.24,-198.60
1320,2284527629,-0.2280,-0.5674,-0.4580,-26.40,103.72,-193.48
1321,2284532630,-0.2334,-0.5474,-0.4536,-27.01,101.83,-188.84
1322,2284537627,-0.2363,-0.5464,-0.4424,-30.85,99.88,-184.63
1323,2284542627,-0.2412,-0.5347,-0.4155,-37.62,97.93,-180.79
1324,2284547628,-0.2217,-0.5156,-0.3887,-45.24,96.34,-176.95
1325,2284552629,-0.1968,-0.4834,-0.3784,-51.52,94.63,-173.05
1326,2284557629,-0.1577,-0.4712,-0.3677,-55.18,92.87,-169.09
1327,2284562627,-0.1108,-0.4541,-0.3564,-55.91,91.04,-164.82
1328,2284567628,-0.0596,-0.4561,-0.3286,-53.96,89.21,-160.24
1329,2284572629,-0.0020,-0.4546,-0.3223,-49.70,86.95,-155.18
1330,2284577629,0.0381,-0.4482,-0.3218,-43.23,86.10,-150.18
1331,2284582629,0.0581,-0.4644,-0.3198,-35.73,84.33,-145.12
1332,2284587628,0.0981,-0.4707,-0.3149,-28.05,81.52,-140.06
1333,2284592629,0.1157,-0.4727,-0.3120,-20.85,79.51,-135.49
1334,2284597629,0.1172,-0.4912,-0.3115,-15.12,77.26,-131.28
1335,2284602630,0.1309,-0.5039,-0.3076,-11.28,75.12,-127.50
1336,2284607628,0.1465,-0.5088,-0.2988,-9.88,72.99,-124.27
1337,2284612629,0.1494,-0.5220,-0.2861,-10.85,70.73,-121.59
1338,2284617629,0.1660,-0.5190,-0.2705,-14.02,68.54,-119.27
1339,2284622629,0.1704,-0.5249,-0.2607,-18.54,66.40,-117.32
1340,2284627628,0.1826,-0.5205,-0.2524,-23.29,64.02,-115.73
1341,2284632629,0.1938,-0.5195,-0.2446,-27.62,61.83,-114.27
1342,2284637629,0.2100,-0.5239,-0.2373,-31.46,59.45,-113.11
1343,2284642630,0.2178,-0.5322,-0.2231,-34.88,57.07,-111.83
1344,2284647628,0.2280,-0.5293,-0.2158,-37.50,54.82,-110.73
1345,2284652629,0.2480,-0.5171,-0.2085,-38.96,52.38,-109.76
1346,2284657629,0.2617,-0.5063,-0.2031,-39.09,50.00,-108.84
1347,2284662629,0.2881,-0.4897,-0.1919,-37.62,47.74,-107.62
1348,2284667628,0.3193,-0.4614,-0.1787,-34.33,45.61,-106.34
1349,2284672630,0.3584,-0.4316,-0.1802,-29.76,43.54,-104.88
1350,2284677629,0.3833,-0.4121,-0.1704,-24.39,41.40,-103.11
1351,2284682629,0.4097,-0.3818,-0.1523,-18.90,39.33,-101.10
1352,2284687628,0.4521,-0.3481,-0.1499,-13.35,37.13,-98.72
1353,2284692695,0.4951,-0.3101,-0.1543,-8.17,35.06,-96.16
1354,2284697629,0.5161,-0.2939,-0.1562,-4.09,33.11,-93.35
1355,2284702629,0.5215,-0.2808,-0.1387,-2.44,31.04,-90.67
1356,2284707627,0.5312,-0.2695,-0.1284,-3.48,29.09,-87.99
1357,2284712629,0.5322,-0.2559,-0.1270,-6.89,27.50,-85.43
1358,2284717629,0.5371,-0.2563,-0.1182,-12.01,25.67,-82.93
1359,2284722629,0.5327,-0.2534,-0.1143,-17.93,24.09,-80.73
1360,2284727628,0.5234,-0.2495,-0.1055,-23.72,22.38,-78.84
1361,2284732629,0.5103,-0.2524,-0.1060,-28.41,20.73,-77.32
1362,2284737630,0.5127,-0.2539,-0.0996,-31.71,19.15,-75.73
1363,2284742629,0.5356,-0.2637,-0.1035,-32.74,17.74,-74.27
1364,2284747628,0.5630,-0.2734,-0.1191,-31.59,16.16,-72.74
1365,2284752629,0.5801,-0.2856,-0.1221,-28.72,14.51,-71.28
1366,2284757629,0.5972,-0.2891,-0.1299,-25.12,12.87,-69.76
1367,2284762629,0.6177,-0.2896,-0.1396,-21.71,11.34,-68.29
1368,2284768009,0.6348,-0.2861,-0.1523,-18.29,9.57,-66.46
1369,2284772629,0.6533,-0.2769,-0.1543,-16.52,8.48,-65.30
1370,2284777629,0.6616,-0.2554,-0.1646,-15.06,7.32,-63.96
1371,2284782629,0.6714,-0.2476,-0.1650,-14.27,6.16,-62.62
1372,2284787628,0.6816,-0.2354,-0.1636,-14.02,5.30,-61.40
1373,2284792629,0.6895,-0.2222,-0.1719,-13.78,4.39,-60.00
1374,2284797629,0.7012,-0.2095,-0.1714,-12.99,3.78,-58.60
1375,2284802629,0.7153,-0.1895,-0.1748,-11.59,2.99,-57.26
1376,2284807628,0.7207,-0.1694,-0.1704,-10.24,2.13,-55.67
1377,2284812629,0.7236,-0.1572,-0.1685,-9.51,1.52,-54.33
1378,2284817629,0.7236,-0.1431,-0.1699,-9.88,0.91,-53.05
1379,2284822629,0.7192,-0.1318,-0.1768,-11.59,0.24,-51.77
1380,2284827628,0.7070,-0.1235,-0.1665,-14.76,-0.37,-50.61
1381,2284832629,0.6997,-0.1289,-0.1553,-19.63,-0.61,-49.45
1382,2284837629,0.6943,-0.1401,-0.1543,-24.88,-0.85,-48.23
1383,2284842631,0.7056,-0.1421,-0.1631,-29.15,-0.98,-46.83
1384,2284847628,0.6997,-0.1465,-0.1655,-31.04,-1.16,-45.43
1385,2284852631,0.6914,-0.1455,-0.1836,-30.18,-1.34,-43.96
1386,2284857858,0.6870,-0.1460,-0.1807,-27.01,-1.52,-42.44
1387,2284862629,0.6978,-0.1294,-0.1875,-22.13,-1.59,-40.91
1388,2284867629,0.7046,-0.1206,-0.2036,-16.40,-1.83,-39.45
1389,2284872630,0.7124,-0.1099,-0.2036,-10.91,-2.01,-38.23
1390,2284877628,0.7222,-0.1006,-0.2188,-6.46,-2.07,-37.01
1391,2284882629,0.7256,-0.0933,-0.2256,-3.17,-2.38,-36.04
1392,2284887629,0.7261,-0.0835,-0.2383,-1.34,-2.50,-35.24
1393,2284892629,0.7192,-0.0840,-0.2476,-1.04,-2.50,-34.70
1394,2284897628,0.7144,-0.0845,-0.2510,-2.01,-2.44,-34.21
1395,2284902629,0.7129,-0.0835,-0.2578,-3.96,-2.20,-33.78
1396,2284907629,0.7202,-0.0854,-0.2627,-6.28,-2.13,-33.35
1397,2284912629,0.7261,-0.0820,-0.2676,-8.54,-2.01,-32.80
1398,2284917628,0.7261,-0.0781,-0.2705,-10.37,-1.89,-32.13
1399,2284922629,0.7402,-0.0742,-0.2793,-11.28,-1.65,-31.28
1400,2284927630,0.7471,-0.0762,-0.2754,-11.59,-1.40,-30.30
1401,2284932629,0.7524,-0.0859,-0.2808,-11.46,-1.16,-29.27
1402,2284937628,0.7622,-0.0864,-0.2803,-10.55,-0.85,-27.80
1403,2284942629,0.7739,-0.0854,-0.2798,-9.02,-0.43,-26.52
1404,2284947627,0.7803,-0.0879,-0.2896,-6.83,-0.12,-25.24
1405,2284952630,0.7856,-0.0903,-0.2935,-4.45,0.24,-24.09
1406,2284957629,0.7788,-0.0952,-0.2949,-2.38,0.67,-23.05
1407,2284962627,0.7788,-0.0996,-0.2964,-0.43,1.16,-22.07
1408,2284967627,0.7861,-0.1011,-0.3052,1.28,1.59,-21.16
1409,2284972631,0.8008,-0.0962,-0.3169,3.11,1.89,-20.18
1410,2284977629,0.7964,-0.0923,-0.3267,4.63,2.32,-19.33
1411,2284982628,0.7896,-0.0923,-0.3281,5.43,2.62,-18.66
1412,2284987629,0.7905,-0.0903,-0.3262,5.55,3.11,-18.11
1413,2284992627,0.8042,-0.0815,-0.3369,5.12,3.35,-17.80
1414,2284997630,0.7891,-0.0830,-0.3501,4.21,3.66,-17.68
1415,2285002628,0.7686,-0.0776,-0.3428,2.93,3.96,-17.99
1416,2285007629,0.7700,-0.0640,-0.3394,1.40,4.39,-18.05
1417,2285012627,0.7803,-0.0527,-0.3350,0.12,4.94,-18.35
1418,2285017629,0.7852,-0.0312,-0.3442,-0.37,5.43,-18.60
1419,2285022628,0.7915,-0.0229,-0.3374,0.18,5.73,-18.60
1420,2285027629,0.8042,-0.0029,-0.3315,1.89,6.16,-18.41
1421,2285032627,0.8125,0.0107,-0.3403,4.09,6.52,-18.17
1422,2285037629,0.8154,0.0103,-0.3394,6.52,6.52,-17.38
1423,2285042629,0.8257,0.0107,-0.3389,7.80,6.65,-16.46
1424,2285047629,0.8311,0.0068,-0.3477,8.60,6.71,-15.37
1425,2285052629,0.8379,-0.0005,-0.3501,8.66,6.89,-13.96
1426,2285057628,0.8472,-0.0073,-0.3560,7.80,6.95,-12.56
1427,2285062629,0.8345,-0.0229,-0.3579,6.28,7.01,-11.16
1428,2285067629,0.8374,-0.0342,-0.3604,4.39,6.95,-9.70
1429,2285072629,0.8516,-0.0410,-0.3647,2.56,7.07,-8.48
1430,2285078041,0.8486,-0.0444,-0.3750,1.16,7.07,-7.26
1431,2285082629,0.8467,-0.0444,-0.3706,0.73,7.13,-6.83
1432,2285087629,0.8403,-0.0488,-0.3706,1.22,7.20,-6.40
1433,2285092629,0.8452,-0.0537,-0.3750,2.38,7.20,-6.16
1434,2285097628,0.8438,-0.0474,-0.3730,4.02,7.07,-6.22
1435,2285102629,0.8462,-0.0479,-0.3711,6.04,6.89,-6.34
1436,2285107629,0.8535,-0.0454,-0.3701,7.74,6.95,-6.46
1437,2285112629,0.8589,-0.0459,-0.3726,9.15,6.71,-6.65
1438,2285117628,0.8540,-0.0415,-0.3706,10.06,6.46,-6.83
1439,2285122630,0.8569,-0.0430,-0.3794,9.88,6.16,-6.89
1440,2285127629,0.8501,-0.0405,-0.3853,8.48,5.73,-7.13
1441,2285132629,0.8354,-0.0483,-0.3789,5.43,5.49,-7.38
1442,2285137628,0.8164,-0.0620,-0.3789,1.04,5.18,-7.50
1443,2285142629,0.8179,-0.0723,-0.3745,-4.15,5.00,-7.62
1444,2285147627,0.8257,-0.0688,-0.3770,-9.15,4.88,-7.80
1445,2285152629,0.8203,-0.0723,-0.3867,-13.23,4.39,-8.11
1446,2285157629,0.8169,-0.0742,-0.3721,-16.10,4.27,-8.17
1447,2285162627,0.8281,-0.0693,-0.3647,-17.20,4.09,-8.17
1448,2285167629,0.8408,-0.0571,-0.3638,-16.46,3.96,-8.11
1449,2285172628,0.8613,-0.0503,-0.3618,-14.21,3.90,-8.05
1450,2285177629,0.8696,-0.0459,-0.3569,-10.67,3.78,-7.87
1451,2285182629,0.8872,-0.0430,-0.3550,-6.71,3.72,-7.38
1452,2285187630,0.9028,-0.0449,-0.3667,-2.87,3.78,-6.89
1453,2285192627,0.9102,-0.0420,-0.3706,0.37,3.72,-6.22
1454,2285197632,0.9111,-0.0493,-0.3633,2.62,3.78,-5.49
1455,2285202628,0.9194,-0.0513,-0.3726,3.84,3.78,-4.76
1456,2285207627,0.9219,-0.0537,-0.3774,4.02,3.78,-3.84
1457,2285212629,0.9141,-0.0610,-0.3833,3.11,3.66,-3.29
1458,2285217629,0.8955,-0.0742,-0.3853,1.52,3.41,-2.68
1459,2285222629,0.8867,-0.0781,-0.3813,-0.85,3.11,-2.07
1460,2285227627,0.8804,-0.0767,-0.3838,-3.23,2.80,-1.77
1461,2285232627,0.8687,-0.0811,-0.3789,-5.67,2.38,-1.71
1462,2285237628,0.8599,-0.0781,-0.3760,-7.74,2.01,-1.77
1463,2285242629,0.8584,-0.0811,-0.3667,-9.33,1.77,-2.13
1464,2285247629,0.8589,-0.0791,-0.3623,-10.00,1.46,-2.56
1465,2285252629,0.8652,-0.0776,-0.3599,-9.70,0.98,-3.23
1466,2285257627,0.8706,-0.0723,-0.3643,-8.48,0.73,-3.90
1467,2285262628,0.8711,-0.0688,-0.3623,-7.26,0.18,-4.63
1468,2285267630,0.8745,-0.0737,-0.3594,-6.40,-0.12,-5.49
1469,2285272629,0.8818,-0.0688,-0.3481,-6.40,-0.30,-6.16
1470,2285278115,0.8813,-0.0620,-0.3574,-7.26,-0.37,-6.77
1471,2285282629,0.8828,-0.0601,-0.3618,-8.29,-0.49,-7.13
1472,2285287744,0.8862,-0.0610,-0.3574,-9.82,-0.49,-7.38
1473,2285292630,0.8848,-0.0532,-0.3530,-11.28,-0.67,-7.44
1474,2285297628,0.8833,-0.0483,-0.3540,-12.50,-0.73,-7.38
1475,2285302628,0.8789,-0.0386,-0.3535,-13.17,-0.73,-7.01
1476,2285307629,0.8823,-0.0229,-0.3481,-13.23,-0.67,-6.65
1477,2285312627,0.8813,-0.0166,-0.3374,-12.13,-0.79,-6.10
1478,2285317629,0.8867,-0.0166,-0.3389,-10.61,-0.73,-5.49
1479,2285322629,0.8906,-0.0137,-0.3379,-8.60,-0.91,-4.88
1480,2285327629,0.8838,-0.0098,-0.3389,-6.40,-1.04,-4.27
1481,2285332627,0.8726,-0.0239,-0.3374,-4.57,-1.28,-3.72
1482,2285338114,0.8594,-0.0278,-0.3408,-3.66,-1.40,-3.29
1483,2285342629,0.8545,-0.0317,-0.3447,-3.35,-1.59,-3.11
1484,2285347628,0.8555,-0.0361,-0.3423,-3.90,-1.71,-2.87
1485,2285352628,0.8560,-0.0371,-0.3472,-5.00,-1.89,-2.99
1486,2285357630,0.8472,-0.0376,-0.3486,-6.95,-2.01,-3.23
1487,2285362627,0.8413,-0.0356,-0.3428,-10.00,-2.13,-3.66
1488,2285367629,0.8496,-0.0332,-0.3384,-13.78,-2.20,-4.21
1489,2285372629,0.8389,-0.0405,-0.3428,-18.05,-2.26,-4.82
1490,2285377629,0.8335,-0.0405,-0.3408,-22.32,-2.13,-5.67
1491,2285382627,0.8193,-0.0435,-0.3311,-26.10,-2.26,-6.40
1492,2285387630,0.8232,-0.0405,-0.3257,-28.66,-2.20,-7.13
1493,2285393079,0.8291,-0.0347,-0.3291,-29.21,-2.07,-7.74
1494,2285397629,0.8306,-0.0244,-0.3306,-27.68,-2.07,-8.05
1495,2285402628,0.8418,-0.0122,-0.3267,-24.45,-2.20,-8.23
1496,2285407628,0.8428,-0.0010,-0.3179,-20.18,-2.26,-7.99
1497,2285412629,0.8496,0.0073,-0.3140,-15.55,-2.32,-7.44
1498,2285417629,0.8638,0.0234,-0.3135,-11.10,-2.26,-6.65
1499,2285422629,0.8818,0.0239,-0.3179,-7.01,-2.07,-5.55
1500,2285427628,0.9014,0.0312,-0.3228,-3.72,-2.07,-4.33
1501,2285432629,0.8936,0.0327,-0.3198,-1.52,-2.07,-3.35
1502,2285437629,0.8862,0.0347,-0.3213,-0.85,-1.83,-2.26
1503,2285442629,0.8779,0.0347,-0.3237,-1.34,-1.71,-1.28
1504,2285447627,0.8730,0.0342,-0.3184,-2.62,-1.40,-0.55
1505,2285452949,0.8730,0.0391,-0.3252,-4.51,-1.22,0.30
1506,2285457629,0.8711,0.0391,-0.3296,-5.67,-1.04,0.67
1507,2285462627,0.8643,0.0400,-0.3242,-6.77,-0.91,1.04
1508,2285467629,0.8511,0.0386,-0.3242,-7.56,-0.91,1.28
1509,2285472629,0.8447,0.0361,-0.3218,-7.99,-0.85,1.40
1510,2285477628,0.8374,0.0352,-0.3154,-8.11,-0.67,1.52
1511,2285482629,0.8374,0.0366,-0.3169,-7.74,-0.67,1.52
1512,2285487629,0.8350,0.0415,-0.3159,-6.71,-0.73,1.40
1513,2285492629,0.8325,0.0439,-0.3193,-5.55,-0.85,1.28
1514,2285497627,0.8286,0.0459,-0.3174,-4.51,-0.98,1.34
1515,2285502629,0.8354,0.0439,-0.3203,-4.27,-1.16,1.40
1516,2285507629,0.8408,0.0352,-0.3242,-4.63,-1.34,1.52
1517,2285512629,0.8369,0.0298,-0.3232,-5.61,-1.40,1.52
1518,2285517628,0.8335,0.0259,-0.3262,-6.89,-1.52,1.77
1519,2285522629,0.8369,0.0249,-0.3262,-8.35,-1.65,1.89
1520,2285527629,0.8447,0.0205,-0.3311,-9.45,-1.59,2.07
1521,2285532629,0.8462,0.0181,-0.3330,-9.63,-1.77,2.20
1522,2285537628,0.8418,0.0181,-0.3354,-9.63,-1.71,2.38
1523,2285542629,0.8418,0.0205,-0.3315,-8.90,-1.89,2.56
1524,2285547627,0.8491,0.0225,-0.3247,-7.74,-1.71,2.68
1525,2285552629,0.8506,0.0220,-0.3223,-6.16,-1.89,2.80
1526,2285557936,0.8550,0.0327,-0.3237,-4.02,-1.77,2.93
1527,2285562630,0.8574,0.0352,-0.3247,-2.74,-1.77,2.93
1528,2285567627,0.8560,0.0366,-0.3218,-1.34,-1.77,2.80
1529,2285572629,0.8550,0.0400,-0.3213,-0.37,-1.71,2.80
1530,2285577629,0.8662,0.0415,-0.3306,-0.12,-1.77,2.62
1531,2285582629,0.8696,0.0425,-0.3237,-0.30,-1.77,2.56
1532,2285587627,0.8740,0.0400,-0.3218,-1.16,-1.77,2.44
1533,2285592627,0.8896,0.0391,-0.3252,-2.26,-1.59,2.32
1534,2285597632,0.8945,0.0332,-0.3379,-3.41,-1.52,2.20
1535,2285602627,0.8970,0.0273,-0.3369,-4.57,-1.52,2.20
1536,2285607629,0.8975,0.0171,-0.3389,-5.55,-1.46,2.13
1537,2285612628,0.8906,0.0103,-0.3394,-6.04,-1.40,2.13
1538,2285617627,0.8823,-0.0010,-0.3354,-6.16,-1.22,2.20
1539,2285622630,0.8770,-0.0010,-0.3369,-5.73,-1.22,2.26
1540,2285627627,0.8765,-0.0039,-0.3394,-4.76,-1.22,2.20
1541,2285632718,0.8745,0.0063,-0.3350,-2.93,-1.16,2.01
1542,2285637632,0.8726,0.0063,-0.3301,-0.79,-1.16,1.83
1543,2285642627,0.8755,0.0127,-0.3247,1.52,-1.10,1.71
1544,2285647627,0.8828,0.0239,-0.3237,3.54,-1.04,1.59
1545,2285652627,0.8936,0.0264,-0.3262,5.12,-1.16,1.16
1546,2285657627,0.8979,0.0273,-0.3345,5.91,-1.16,0.98
1547,2285662629,0.9111,0.0264,-0.3340,5.55,-1.28,0.67
